A1UKAS30R0MFI6:3JC6VJ2SACHWCYHCMVEE0BIWXAJA5W,0,1548012665255,"{""rt"": 2311, ""trial_type"": ""instructions"", ""view_history"": ""[{\""page_index\"":0,\""viewing_time\"":2310}]"", ""internal_node_id"": ""0.0-0.0"", ""subjectId"": ""bzwcpqggvr"", ""earnedReward"": 27.5, ""time_elapsed"": 2313, ""trial_index"": 0}"
A1UKAS30R0MFI6:3JC6VJ2SACHWCYHCMVEE0BIWXAJA5W,1,1548012674096,"{""rt"": 7815, ""trial_type"": ""survey-multi-choice"", ""responses"": ""{\""Q0\"":\""25\"",\""Q1\"":\""male\""}"", ""internal_node_id"": ""0.0-1.0"", ""subjectId"": ""bzwcpqggvr"", ""earnedReward"": 27.5, ""time_elapsed"": 11155, ""trial_index"": 1}"
A1UKAS30R0MFI6:3JC6VJ2SACHWCYHCMVEE0BIWXAJA5W,2,1548012737160,"{""rt"": 62062, ""trial_type"": ""instructions"", ""view_history"": ""[{\""page_index\"":0,\""viewing_time\"":2968},{\""page_index\"":1,\""viewing_time\"":15300},{\""page_index\"":2,\""viewing_time\"":8947},{\""page_index\"":3,\""viewing_time\"":4464},{\""page_index\"":4,\""viewing_time\"":2242},{\""page_index\"":5,\""viewing_time\"":1827},{\""page_index\"":6,\""viewing_time\"":2565},{\""page_index\"":7,\""viewing_time\"":5114},{\""page_index\"":8,\""viewing_time\"":5782},{\""page_index\"":9,\""viewing_time\"":11220},{\""page_index\"":10,\""viewing_time\"":1632}]"", ""internal_node_id"": ""0.0-2.0"", ""subjectId"": ""bzwcpqggvr"", ""earnedReward"": 27.5, ""time_elapsed"": 74219, ""trial_index"": 2}"
A1UKAS30R0MFI6:3JC6VJ2SACHWCYHCMVEE0BIWXAJA5W,3,1548012765296,"{""rt"": 27098, ""trial_type"": ""survey-multi-choiceOriginal"", ""responses"": ""{\""Q0\"":\""6\"",\""Q1\"":\""3\"",\""Q2\"":\""Yes\"",\""Q3\"":\""No (I am inside the safe square)\"",\""Q4\"":\""I got caught by the robber\""}"", ""internal_node_id"": ""0.0-3.0"", ""subjectId"": ""bzwcpqggvr"", ""label"": ""compr1"", ""earnedReward"": 27.5, ""time_elapsed"": 102355, ""trialType"": ""quest"", ""trial_index"": 3}"
A1UKAS30R0MFI6:3JC6VJ2SACHWCYHCMVEE0BIWXAJA5W,4,1548012768621,"{""rt"": 2322, ""trial_type"": ""text"", ""internal_node_id"": ""0.0-4.0-0.0-0.0"", ""subjectId"": ""bzwcpqggvr"", ""earnedReward"": 27.5, ""time_elapsed"": 105679, ""key_press"": 32, ""trial_index"": 4}"
A1UKAS30R0MFI6:3JC6VJ2SACHWCYHCMVEE0BIWXAJA5W,5,1548012788430,"{""rt"": 18808, ""trial_type"": ""instructions"", ""view_history"": ""[{\""page_index\"":0,\""viewing_time\"":1579},{\""page_index\"":1,\""viewing_time\"":4714},{\""page_index\"":2,\""viewing_time\"":2251},{\""page_index\"":3,\""viewing_time\"":1563},{\""page_index\"":4,\""viewing_time\"":780},{\""page_index\"":5,\""viewing_time\"":568},{\""page_index\"":6,\""viewing_time\"":528},{\""page_index\"":7,\""viewing_time\"":1338},{\""page_index\"":8,\""viewing_time\"":1491},{\""page_index\"":9,\""viewing_time\"":2618},{\""page_index\"":10,\""viewing_time\"":1378}]"", ""internal_node_id"": ""0.0-4.0-0.0-1.0"", ""subjectId"": ""bzwcpqggvr"", ""earnedReward"": 27.5, ""time_elapsed"": 125489, ""trial_index"": 5}"
A1UKAS30R0MFI6:3JC6VJ2SACHWCYHCMVEE0BIWXAJA5W,6,1548012805148,"{""rt"": 15693, ""trial_type"": ""survey-multi-choiceOriginal"", ""responses"": ""{\""Q0\"":\""6\"",\""Q1\"":\""3\"",\""Q2\"":\""No\"",\""Q3\"":\""No (I am inside the safe square)\"",\""Q4\"":\""I got caught by the robber\""}"", ""internal_node_id"": ""0.0-4.0-0.0-2.0"", ""subjectId"": ""bzwcpqggvr"", ""label"": ""compr1"", ""earnedReward"": 27.5, ""time_elapsed"": 142207, ""trialType"": ""quest"", ""trial_index"": 6}"
A1UKAS30R0MFI6:3JC6VJ2SACHWCYHCMVEE0BIWXAJA5W,7,1548012809144,"{""rt"": 2992, ""trial_type"": ""text"", ""internal_node_id"": ""0.0-5.0"", ""subjectId"": ""bzwcpqggvr"", ""earnedReward"": 27.5, ""time_elapsed"": 146203, ""key_press"": 32, ""trial_index"": 7}"
A1UKAS30R0MFI6:3JC6VJ2SACHWCYHCMVEE0BIWXAJA5W,8,1548012825357,"{""wonTokkens"": ""0"", ""trial_type"": ""AAALevelOne"", ""robberTrackColLamDict"": ""[{\""color\"":\""azure\"",\""parameter\"":\""&#955; = 1.0536\""}]"", ""tokkenTrackDict"": ""[{\""position\"":-1,\""time\"":11},{\""position\"":-1,\""time\"":249},{\""position\"":-1,\""time\"":1836},{\""position\"":-1,\""time\"":3045},{\""position\"":-1,\""time\"":3867},{\""position\"":-1,\""time\"":3930},{\""position\"":-1,\""time\"":5480},{\""position\"":-1,\""time\"":6439}]"", ""playerTrackDict"": ""[{\""position\"":-1,\""time\"":2570},{\""position\"":0,\""time\"":3211},{\""position\"":-1,\""time\"":6417}]"", ""internal_node_id"": ""0.0-6.0"", ""subjectId"": ""bzwcpqggvr"", ""earnedReward"": 27.5, ""playerCaughtTrackDict"": ""[{\""position\"":-1,\""time\"":6616}]"", ""time_elapsed"": 162416, ""robberTrackArr"": ""[12,4840,5227,6616]"", ""playerIsCaught"": ""true"", ""tokkeWonTrackDict"": ""[{\""position\"":-1,\""time\"":2570},{\""position\"":-1,\""time\"":6419}]"", ""trial_index"": 8}"
A1UKAS30R0MFI6:3JC6VJ2SACHWCYHCMVEE0BIWXAJA5W,9,1548012843182,"{""wonTokkens"": ""0"", ""trial_type"": ""AAALevelOne"", ""robberTrackColLamDict"": ""[{\""color\"":\""purple\"",\""parameter\"":\""&#955; = 3.5667\""}]"", ""tokkenTrackDict"": ""[{\""position\"":-1,\""time\"":9}]"", ""playerTrackDict"": ""[{\""position\"":-1,\""time\"":832}]"", ""internal_node_id"": ""0.0-7.0"", ""subjectId"": ""bzwcpqggvr"", ""earnedReward"": 27.5, ""playerCaughtTrackDict"": ""[{\""position\"":-1,\""time\"":933}]"", ""time_elapsed"": 180241, ""robberTrackArr"": ""[10,74,291,631,765,811,933]"", ""playerIsCaught"": ""true"", ""tokkeWonTrackDict"": ""[{\""position\"":-1,\""time\"":833}]"", ""trial_index"": 9}"
A1UKAS30R0MFI6:3JC6VJ2SACHWCYHCMVEE0BIWXAJA5W,10,1548012854751,"{""wonTokkens"": ""2"", ""trial_type"": ""AAALevelOne"", ""robberTrackColLamDict"": ""[{\""color\"":\""azure\"",\""parameter\"":\""&#955; = 1.0536\""}]"", ""tokkenTrackDict"": ""[{\""position\"":-1,\""time\"":13},{\""position\"":-1,\""time\"":457},{\""position\"":1,\""time\"":1460},{\""position\"":1,\""time\"":1879},{\""position\"":-1,\""time\"":3306},{\""position\"":-1,\""time\"":4054},{\""position\"":-1,\""time\"":6029},{\""position\"":-1,\""time\"":6036},{\""position\"":1,\""time\"":7828},{\""position\"":1,\""time\"":7965},{\""position\"":1,\""time\"":8829},{\""position\"":1,\""time\"":9062}]"", ""playerTrackDict"": ""[{\""position\"":1,\""time\"":1806},{\""position\"":0,\""time\"":2055},{\""position\"":-1,\""time\"":3651},{\""position\"":0,\""time\"":3795},{\""position\"":-1,\""time\"":6386},{\""position\"":0,\""time\"":6638}]"", ""internal_node_id"": ""0.0-8.0"", ""subjectId"": ""bzwcpqggvr"", ""earnedReward"": 27.5, ""playerCaughtTrackDict"": ""[]"", ""time_elapsed"": 191810, ""robberTrackArr"": ""[14,626,1032,1703,2452,3606,4371,4533,4625,5638,5814,8467]"", ""playerIsCaught"": ""false"", ""tokkeWonTrackDict"": ""[{\""position\"":1,\""time\"":1807},{\""position\"":-1,\""time\"":3652}]"", ""trial_index"": 10}"
A1UKAS30R0MFI6:3JC6VJ2SACHWCYHCMVEE0BIWXAJA5W,11,1548012869454,"{""wonTokkens"": ""2"", ""trial_type"": ""AAALevelOne"", ""robberTrackColLamDict"": ""[{\""color\"":\""yellow\"",\""parameter\"":\""&#955; = 2.2314\""}]"", ""tokkenTrackDict"": ""[{\""position\"":1,\""time\"":9},{\""position\"":1,\""time\"":9},{\""position\"":-1,\""time\"":1333},{\""position\"":-1,\""time\"":2545},{\""position\"":-1,\""time\"":3293},{\""position\"":-1,\""time\"":3318},{\""position\"":-1,\""time\"":6034},{\""position\"":-1,\""time\"":6187},{\""position\"":1,\""time\"":7534},{\""position\"":1,\""time\"":8044},{\""position\"":1,\""time\"":11008},{\""position\"":1,\""time\"":12197}]"", ""playerTrackDict"": ""[{\""position\"":-1,\""time\"":1856},{\""position\"":0,\""time\"":1972},{\""position\"":-1,\""time\"":6348},{\""position\"":0,\""time\"":6427},{\""position\"":1,\""time\"":11723},{\""position\"":0,\""time\"":11849}]"", ""internal_node_id"": ""0.0-9.0"", ""subjectId"": ""bzwcpqggvr"", ""earnedReward"": 27.5, ""playerCaughtTrackDict"": ""[]"", ""time_elapsed"": 206513, ""robberTrackArr"": ""[9,24,926,942,1345,1505,1564,1637,1704,2388,2504,2810,3537,3925,4133,4310,4847,5467,5642,5723,6554,6990,7439,7532,7615,7791,8963,9522,9595,10008,10929,11956]"", ""playerIsCaught"": ""false"", ""tokkeWonTrackDict"": ""[{\""position\"":-1,\""time\"":1857},{\""position\"":1,\""time\"":11724}]"", ""trial_index"": 11}"
A1UKAS30R0MFI6:3JC6VJ2SACHWCYHCMVEE0BIWXAJA5W,12,1548012880439,"{""wonTokkens"": ""2"", ""trial_type"": ""AAALevelOne"", ""robberTrackColLamDict"": ""[{\""color\"":\""azure\"",\""parameter\"":\""&#955; = 1.0536\""}]"", ""tokkenTrackDict"": ""[{\""position\"":-1,\""time\"":10},{\""position\"":-1,\""time\"":455},{\""position\"":1,\""time\"":1834},{\""position\"":1,\""time\"":2132},{\""position\"":-1,\""time\"":3048},{\""position\"":-1,\""time\"":3157},{\""position\"":1,\""time\"":4415},{\""position\"":1,\""time\"":5541},{\""position\"":1,\""time\"":6279},{\""position\"":1,\""time\"":7355},{\""position\"":-1,\""time\"":8395},{\""position\"":-1,\""time\"":8481}]"", ""playerTrackDict"": ""[{\""position\"":1,\""time\"":4832},{\""position\"":0,\""time\"":4943},{\""position\"":1,\""time\"":7022},{\""position\"":0,\""time\"":7096}]"", ""internal_node_id"": ""0.0-10.0"", ""subjectId"": ""bzwcpqggvr"", ""earnedReward"": 27.5, ""playerCaughtTrackDict"": ""[]"", ""time_elapsed"": 217498, ""robberTrackArr"": ""[11,985,1232,1786,1786,4280,5067,6175,7629,8079]"", ""playerIsCaught"": ""false"", ""tokkeWonTrackDict"": ""[{\""position\"":1,\""time\"":4833},{\""position\"":1,\""time\"":7023}]"", ""trial_index"": 12}"
A1UKAS30R0MFI6:3JC6VJ2SACHWCYHCMVEE0BIWXAJA5W,13,1548012894704,"{""wonTokkens"": ""4"", ""trial_type"": ""AAALevelOne"", ""robberTrackColLamDict"": ""[{\""color\"":\""yellow\"",\""parameter\"":\""&#955; = 2.2314\""}]"", ""tokkenTrackDict"": ""[{\""position\"":-1,\""time\"":9},{\""position\"":-1,\""time\"":710},{\""position\"":1,\""time\"":1781},{\""position\"":1,\""time\"":3197},{\""position\"":1,\""time\"":4371},{\""position\"":1,\""time\"":5481},{\""position\"":1,\""time\"":6835},{\""position\"":1,\""time\"":7687},{\""position\"":-1,\""time\"":8627},{\""position\"":-1,\""time\"":9729},{\""position\"":-1,\""time\"":10677},{\""position\"":-1,\""time\"":11762}]"", ""playerTrackDict"": ""[{\""position\"":-1,\""time\"":765},{\""position\"":0,\""time\"":820},{\""position\"":1,\""time\"":2077},{\""position\"":0,\""time\"":2208},{\""position\"":1,\""time\"":5054},{\""position\"":0,\""time\"":5119},{\""position\"":1,\""time\"":7777},{\""position\"":0,\""time\"":7808},{\""position\"":-1,\""time\"":9059},{\""position\"":0,\""time\"":9170},{\""position\"":-1,\""time\"":11138},{\""position\"":0,\""time\"":11260}]"", ""internal_node_id"": ""0.0-11.0"", ""subjectId"": ""bzwcpqggvr"", ""earnedReward"": 27.5, ""playerCaughtTrackDict"": ""[]"", ""time_elapsed"": 231763, ""robberTrackArr"": ""[12,497,1064,1365,2775,2979,3699,3724,4992,5340,5704,5767,6402,6975,7834,8583,8843,9039,9354,10984]"", ""playerIsCaught"": ""false"", ""tokkeWonTrackDict"": ""[{\""position\"":1,\""time\"":2078},{\""position\"":1,\""time\"":5055},{\""position\"":-1,\""time\"":9060},{\""position\"":-1,\""time\"":11140}]"", ""trial_index"": 13}"
A1UKAS30R0MFI6:3JC6VJ2SACHWCYHCMVEE0BIWXAJA5W,14,1548012911094,"{""wonTokkens"": ""0"", ""trial_type"": ""AAALevelOne"", ""robberTrackColLamDict"": ""[{\""color\"":\""yellow\"",\""parameter\"":\""&#955; = 2.2314\""}]"", ""tokkenTrackDict"": ""[{\""position\"":1,\""time\"":7},{\""position\"":1,\""time\"":123},{\""position\"":1,\""time\"":845}]"", ""playerTrackDict"": ""[{\""position\"":1,\""time\"":1165}]"", ""internal_node_id"": ""0.0-12.0"", ""subjectId"": ""bzwcpqggvr"", ""earnedReward"": 27.5, ""playerCaughtTrackDict"": ""[{\""position\"":1,\""time\"":1172}]"", ""time_elapsed"": 248153, ""robberTrackArr"": ""[9,208,451,798,1172]"", ""playerIsCaught"": ""true"", ""tokkeWonTrackDict"": ""[{\""position\"":1,\""time\"":1167}]"", ""trial_index"": 14}"
A1UKAS30R0MFI6:3JC6VJ2SACHWCYHCMVEE0BIWXAJA5W,15,1548012924456,"{""wonTokkens"": ""0"", ""trial_type"": ""AAALevelOne"", ""robberTrackColLamDict"": ""[{\""color\"":\""yellow\"",\""parameter\"":\""&#955; = 2.2314\""}]"", ""tokkenTrackDict"": ""[{\""position\"":1,\""time\"":7},{\""position\"":1,\""time\"":444}]"", ""playerTrackDict"": ""[{\""position\"":1,\""time\"":643}]"", ""internal_node_id"": ""0.0-13.0"", ""subjectId"": ""bzwcpqggvr"", ""earnedReward"": 27.5, ""playerCaughtTrackDict"": ""[{\""position\"":1,\""time\"":710}]"", ""time_elapsed"": 261515, ""robberTrackArr"": ""[8,8,18,566,710]"", ""playerIsCaught"": ""true"", ""tokkeWonTrackDict"": ""[]"", ""trial_index"": 15}"
A1UKAS30R0MFI6:3JC6VJ2SACHWCYHCMVEE0BIWXAJA5W,16,1548012933947,"{""wonTokkens"": ""0"", ""trial_type"": ""AAALevelOne"", ""robberTrackColLamDict"": ""[{\""color\"":\""azure\"",\""parameter\"":\""&#955; = 1.0536\""}]"", ""tokkenTrackDict"": ""[{\""position\"":-1,\""time\"":7},{\""position\"":-1,\""time\"":62},{\""position\"":-1,\""time\"":783},{\""position\"":-1,\""time\"":816},{\""position\"":-1,\""time\"":2615},{\""position\"":-1,\""time\"":2636},{\""position\"":-1,\""time\"":4253},{\""position\"":-1,\""time\"":4255},{\""position\"":-1,\""time\"":5029},{\""position\"":-1,\""time\"":5468},{\""position\"":1,\""time\"":6649},{\""position\"":1,\""time\"":6988}]"", ""playerTrackDict"": ""[{\""position\"":-1,\""time\"":5530},{\""position\"":0,\""time\"":5656}]"", ""internal_node_id"": ""0.0-14.0"", ""subjectId"": ""bzwcpqggvr"", ""earnedReward"": 27.5, ""playerCaughtTrackDict"": ""[]"", ""time_elapsed"": 271006, ""robberTrackArr"": ""[9,1253,3313,3629,3780,4013,4021,4395,4644,4910,6967]"", ""playerIsCaught"": ""false"", ""tokkeWonTrackDict"": ""[]"", ""trial_index"": 16}"
A1UKAS30R0MFI6:3JC6VJ2SACHWCYHCMVEE0BIWXAJA5W,17,1548012955912,"{""wonTokkens"": ""0"", ""trial_type"": ""AAALevelOne"", ""robberTrackColLamDict"": ""[{\""color\"":\""azure\"",\""parameter\"":\""&#955; = 1.0536\""}]"", ""tokkenTrackDict"": ""[{\""position\"":1,\""time\"":6},{\""position\"":1,\""time\"":759},{\""position\"":-1,\""time\"":2817},{\""position\"":-1,\""time\"":3584},{\""position\"":-1,\""time\"":5640},{\""position\"":-1,\""time\"":6307},{\""position\"":1,\""time\"":7649},{\""position\"":1,\""time\"":7970}]"", ""playerTrackDict"": ""[{\""position\"":1,\""time\"":521},{\""position\"":0,\""time\"":568},{\""position\"":-1,\""time\"":3101},{\""position\"":0,\""time\"":3156},{\""position\"":-1,\""time\"":5995},{\""position\"":0,\""time\"":6122},{\""position\"":1,\""time\"":8107}]"", ""internal_node_id"": ""0.0-15.0"", ""subjectId"": ""bzwcpqggvr"", ""earnedReward"": 27.5, ""playerCaughtTrackDict"": ""[{\""position\"":1,\""time\"":8151}]"", ""time_elapsed"": 292971, ""robberTrackArr"": ""[9,2606,3800,4014,4295,4455,5750,7463,7552,8065,8151]"", ""playerIsCaught"": ""true"", ""tokkeWonTrackDict"": ""[{\""position\"":1,\""time\"":522},{\""position\"":-1,\""time\"":3102},{\""position\"":-1,\""time\"":5996}]"", ""trial_index"": 17}"
A1UKAS30R0MFI6:3JC6VJ2SACHWCYHCMVEE0BIWXAJA5W,18,1548012975862,"{""wonTokkens"": ""0"", ""trial_type"": ""AAALevelOne"", ""robberTrackColLamDict"": ""[{\""color\"":\""yellow\"",\""parameter\"":\""&#955; = 2.2314\""}]"", ""tokkenTrackDict"": ""[{\""position\"":-1,\""time\"":6},{\""position\"":-1,\""time\"":2872},{\""position\"":-1,\""time\"":4054}]"", ""playerTrackDict"": ""[{\""position\"":1,\""time\"":1083},{\""position\"":0,\""time\"":1148},{\""position\"":-1,\""time\"":1562},{\""position\"":0,\""time\"":1702},{\""position\"":-1,\""time\"":1795},{\""position\"":0,\""time\"":2145},{\""position\"":-1,\""time\"":4441}]"", ""internal_node_id"": ""0.0-16.0"", ""subjectId"": ""bzwcpqggvr"", ""earnedReward"": 27.5, ""playerCaughtTrackDict"": ""[{\""position\"":-1,\""time\"":4518}]"", ""time_elapsed"": 312921, ""robberTrackArr"": ""[6,138,1473,2328,2493,2509,2787,2876,3292,4518]"", ""playerIsCaught"": ""true"", ""tokkeWonTrackDict"": ""[{\""position\"":-1,\""time\"":1563},{\""position\"":-1,\""time\"":4442}]"", ""trial_index"": 18}"
A1UKAS30R0MFI6:3JC6VJ2SACHWCYHCMVEE0BIWXAJA5W,19,1548012985961,"{""wonTokkens"": ""0"", ""trial_type"": ""AAALevelOne"", ""robberTrackColLamDict"": ""[{\""color\"":\""azure\"",\""parameter\"":\""&#955; = 1.0536\""}]"", ""tokkenTrackDict"": ""[{\""position\"":-1,\""time\"":10},{\""position\"":-1,\""time\"":446},{\""position\"":1,\""time\"":1556},{\""position\"":1,\""time\"":1626},{\""position\"":1,\""time\"":2566},{\""position\"":1,\""time\"":3017},{\""position\"":1,\""time\"":3846},{\""position\"":1,\""time\"":5334},{\""position\"":1,\""time\"":6182},{\""position\"":1,\""time\"":6607},{\""position\"":1,\""time\"":7572},{\""position\"":1,\""time\"":7597}]"", ""playerTrackDict"": ""[]"", ""internal_node_id"": ""0.0-17.0"", ""subjectId"": ""bzwcpqggvr"", ""earnedReward"": 27.5, ""playerCaughtTrackDict"": ""[]"", ""time_elapsed"": 323020, ""robberTrackArr"": ""[10,852,1332,2741,3013,3326,3811,3868]"", ""playerIsCaught"": ""false"", ""tokkeWonTrackDict"": ""[]"", ""trial_index"": 19}"
A1UKAS30R0MFI6:3JC6VJ2SACHWCYHCMVEE0BIWXAJA5W,20,1548013000531,"{""wonTokkens"": ""0"", ""trial_type"": ""AAALevelOne"", ""robberTrackColLamDict"": ""[{\""color\"":\""yellow\"",\""parameter\"":\""&#955; = 2.2314\""}]"", ""tokkenTrackDict"": ""[{\""position\"":-1,\""time\"":6},{\""position\"":-1,\""time\"":663},{\""position\"":-1,\""time\"":1661},{\""position\"":-1,\""time\"":2316},{\""position\"":1,\""time\"":4030},{\""position\"":1,\""time\"":5476},{\""position\"":-1,\""time\"":6382},{\""position\"":-1,\""time\"":6510},{\""position\"":1,\""time\"":7973},{\""position\"":1,\""time\"":9610},{\""position\"":-1,\""time\"":11842},{\""position\"":-1,\""time\"":12066}]"", ""playerTrackDict"": ""[{\""position\"":1,\""time\"":2367},{\""position\"":0,\""time\"":2427}]"", ""internal_node_id"": ""0.0-18.0"", ""subjectId"": ""bzwcpqggvr"", ""earnedReward"": 27.5, ""playerCaughtTrackDict"": ""[]"", ""time_elapsed"": 337590, ""robberTrackArr"": ""[9,702,759,805,1356,2012,2728,2933,3028,3034,3247,3448,3497,3643,4737,5261,5456,5500,5690,6221,6389,7636,7659,7794,7946,8020,8421,8653,9011,9053,9935,10096,10186,11538]"", ""playerIsCaught"": ""false"", ""tokkeWonTrackDict"": ""[]"", ""trial_index"": 20}"
A1UKAS30R0MFI6:3JC6VJ2SACHWCYHCMVEE0BIWXAJA5W,21,1548013015745,"{""wonTokkens"": ""1"", ""trial_type"": ""AAALevelOne"", ""robberTrackColLamDict"": ""[{\""color\"":\""purple\"",\""parameter\"":\""&#955; = 3.5667\""}]"", ""tokkenTrackDict"": ""[{\""position\"":-1,\""time\"":7},{\""position\"":-1,\""time\"":2061},{\""position\"":1,\""time\"":2794},{\""position\"":1,\""time\"":3397},{\""position\"":1,\""time\"":4240},{\""position\"":1,\""time\"":5534},{\""position\"":-1,\""time\"":8355},{\""position\"":-1,\""time\"":8886},{\""position\"":1,\""time\"":10820},{\""position\"":1,\""time\"":10985},{\""position\"":1,\""time\"":11730},{\""position\"":1,\""time\"":12709}]"", ""playerTrackDict"": ""[{\""position\"":1,\""time\"":3230},{\""position\"":0,\""time\"":3299}]"", ""internal_node_id"": ""0.0-19.0"", ""subjectId"": ""bzwcpqggvr"", ""earnedReward"": 27.5, ""playerCaughtTrackDict"": ""[]"", ""time_elapsed"": 352804, ""robberTrackArr"": ""[8,211,460,461,1422,1562,1733,1842,2028,2127,2300,2905,3071,3163,3171,4532,4761,4846,5863,6057,6491,6589,6780,7079,7973,8126,8649,8886,9033,9038,9086,9099,9265,9452,9731,9824,10785,10968,11308,11993,12159,12258,12582,12616,12627]"", ""playerIsCaught"": ""false"", ""tokkeWonTrackDict"": ""[{\""position\"":1,\""time\"":3231}]"", ""trial_index"": 21}"
A1UKAS30R0MFI6:3JC6VJ2SACHWCYHCMVEE0BIWXAJA5W,22,1548013037369,"{""wonTokkens"": ""0"", ""trial_type"": ""AAALevelOne"", ""robberTrackColLamDict"": ""[{\""color\"":\""purple\"",\""parameter\"":\""&#955; = 3.5667\""}]"", ""tokkenTrackDict"": ""[{\""position\"":-1,\""time\"":7},{\""position\"":-1,\""time\"":766},{\""position\"":1,\""time\"":2404},{\""position\"":1,\""time\"":3698},{\""position\"":-1,\""time\"":5823}]"", ""playerTrackDict"": ""[{\""position\"":1,\""time\"":3101},{\""position\"":0,\""time\"":3204},{\""position\"":1,\""time\"":6942}]"", ""internal_node_id"": ""0.0-20.0"", ""subjectId"": ""bzwcpqggvr"", ""earnedReward"": 27.5, ""playerCaughtTrackDict"": ""[{\""position\"":1,\""time\"":6952}]"", ""time_elapsed"": 374428, ""robberTrackArr"": ""[8,194,238,416,963,1448,1454,1455,1472,1607,1765,1879,1919,2133,2501,2522,3207,3488,3506,3879,4196,4415,4587,4708,5134,5175,5256,5728,5862,6014,6019,6068,6220,6374,6490,6560,6621,6765,6952]"", ""playerIsCaught"": ""true"", ""tokkeWonTrackDict"": ""[{\""position\"":1,\""time\"":3103}]"", ""trial_index"": 22}"
A1UKAS30R0MFI6:3JC6VJ2SACHWCYHCMVEE0BIWXAJA5W,23,1548013052756,"{""rt"": 14386, ""trial_type"": ""text"", ""internal_node_id"": ""0.0-21.0"", ""subjectId"": ""bzwcpqggvr"", ""earnedReward"": 27.5, ""time_elapsed"": 389815, ""key_press"": 32, ""trial_index"": 23}"
A1UKAS30R0MFI6:3JC6VJ2SACHWCYHCMVEE0BIWXAJA5W,24,1548013067003,"{""wonTokkens"": ""5"", ""trial_type"": ""AAALevelOne"", ""robberTrackColLamDict"": ""[{\""color\"":\""yellow\"",\""parameter\"":\""&#955; = 2.2314\""}]"", ""tokkenTrackDict"": ""[{\""position\"":-1,\""time\"":9},{\""position\"":-1,\""time\"":257},{\""position\"":-1,\""time\"":1348},{\""position\"":-1,\""time\"":2139},{\""position\"":1,\""time\"":3790},{\""position\"":1,\""time\"":4477},{\""position\"":-1,\""time\"":5338},{\""position\"":-1,\""time\"":6373},{\""position\"":1,\""time\"":8599},{\""position\"":1,\""time\"":9655},{\""position\"":-1,\""time\"":10426},{\""position\"":-1,\""time\"":11744}]"", ""playerTrackDict"": ""[{\""position\"":1,\""time\"":1770},{\""position\"":0,\""time\"":1843},{\""position\"":-1,\""time\"":2135},{\""position\"":0,\""time\"":2361},{\""position\"":1,\""time\"":4163},{\""position\"":0,\""time\"":4426},{\""position\"":-1,\""time\"":5646},{\""position\"":0,\""time\"":5774},{\""position\"":1,\""time\"":8904},{\""position\"":0,\""time\"":9007},{\""position\"":-1,\""time\"":10721},{\""position\"":0,\""time\"":10828}]"", ""internal_node_id"": ""0.0-22.0"", ""subjectId"": ""bzwcpqggvr"", ""earnedReward"": 27.5, ""playerCaughtTrackDict"": ""[]"", ""time_elapsed"": 404062, ""robberTrackArr"": ""[9,665,1505,1511,2519,2589,2853,3584,3740,3772,4959,4967,6372,6797,7384,7495,7668,7774,8848,9019,9306,9502,9743,9887,10601,10715,11297]"", ""playerIsCaught"": ""false"", ""tokkeWonTrackDict"": ""[{\""position\"":-1,\""time\"":2136},{\""position\"":1,\""time\"":4164},{\""position\"":-1,\""time\"":5647},{\""position\"":1,\""time\"":8906},{\""position\"":-1,\""time\"":10721}]"", ""trial_index"": 24}"
A1UKAS30R0MFI6:3JC6VJ2SACHWCYHCMVEE0BIWXAJA5W,25,1548013083143,"{""wonTokkens"": ""3"", ""trial_type"": ""AAALevelOne"", ""robberTrackColLamDict"": ""[{\""color\"":\""azure\"",\""parameter\"":\""&#955; = 1.0536\""}]"", ""tokkenTrackDict"": ""[{\""position\"":-1,\""time\"":7},{\""position\"":-1,\""time\"":1817},{\""position\"":-1,\""time\"":3372},{\""position\"":-1,\""time\"":4541},{\""position\"":-1,\""time\"":6247},{\""position\"":-1,\""time\"":7474},{\""position\"":1,\""time\"":8449},{\""position\"":1,\""time\"":8685},{\""position\"":1,\""time\"":9473},{\""position\"":1,\""time\"":10260},{\""position\"":-1,\""time\"":12257},{\""position\"":-1,\""time\"":13636}]"", ""playerTrackDict"": ""[{\""position\"":-1,\""time\"":567},{\""position\"":0,\""time\"":664},{\""position\"":-1,\""time\"":3753},{\""position\"":0,\""time\"":3865},{\""position\"":-1,\""time\"":6724},{\""position\"":0,\""time\"":6826},{\""position\"":1,\""time\"":10326},{\""position\"":0,\""time\"":10443}]"", ""internal_node_id"": ""0.0-23.0"", ""subjectId"": ""bzwcpqggvr"", ""earnedReward"": 27.5, ""playerCaughtTrackDict"": ""[]"", ""time_elapsed"": 420202, ""robberTrackArr"": ""[8,949,1135,2170,3272,4791,4892,4958,5408,5469,6694,7365,9203,10450,11753,12495,13619]"", ""playerIsCaught"": ""false"", ""tokkeWonTrackDict"": ""[{\""position\"":-1,\""time\"":568},{\""position\"":-1,\""time\"":3753},{\""position\"":-1,\""time\"":6724}]"", ""trial_index"": 25}"
A1UKAS30R0MFI6:3JC6VJ2SACHWCYHCMVEE0BIWXAJA5W,26,1548013097533,"{""wonTokkens"": ""5"", ""trial_type"": ""AAALevelOne"", ""robberTrackColLamDict"": ""[{\""color\"":\""azure\"",\""parameter\"":\""&#955; = 1.0536\""}]"", ""tokkenTrackDict"": ""[{\""position\"":1,\""time\"":10},{\""position\"":1,\""time\"":1082},{\""position\"":1,\""time\"":3120},{\""position\"":1,\""time\"":3447},{\""position\"":-1,\""time\"":4656},{\""position\"":-1,\""time\"":5597},{\""position\"":1,\""time\"":6506},{\""position\"":1,\""time\"":6982},{\""position\"":-1,\""time\"":8337},{\""position\"":-1,\""time\"":8351},{\""position\"":-1,\""time\"":9669},{\""position\"":-1,\""time\"":11887}]"", ""playerTrackDict"": ""[{\""position\"":1,\""time\"":876},{\""position\"":0,\""time\"":955},{\""position\"":1,\""time\"":3433},{\""position\"":0,\""time\"":3550},{\""position\"":-1,\""time\"":5062},{\""position\"":0,\""time\"":5229},{\""position\"":1,\""time\"":6783},{\""position\"":0,\""time\"":6985},{\""position\"":-1,\""time\"":10007},{\""position\"":0,\""time\"":10133}]"", ""internal_node_id"": ""0.0-24.0"", ""subjectId"": ""bzwcpqggvr"", ""earnedReward"": 27.5, ""playerCaughtTrackDict"": ""[]"", ""time_elapsed"": 434592, ""robberTrackArr"": ""[11,713,1426,1569,3215,8310,8605,9569,10654,10779]"", ""playerIsCaught"": ""false"", ""tokkeWonTrackDict"": ""[{\""position\"":1,\""time\"":877},{\""position\"":1,\""time\"":3434},{\""position\"":-1,\""time\"":5063},{\""position\"":1,\""time\"":6784},{\""position\"":-1,\""time\"":10008}]"", ""trial_index"": 26}"
A1UKAS30R0MFI6:3JC6VJ2SACHWCYHCMVEE0BIWXAJA5W,27,1548013115840,"{""wonTokkens"": ""0"", ""trial_type"": ""AAALevelOne"", ""robberTrackColLamDict"": ""[{\""color\"":\""yellow\"",\""parameter\"":\""&#955; = 2.2314\""}]"", ""tokkenTrackDict"": ""[{\""position\"":1,\""time\"":8},{\""position\"":1,\""time\"":1286},{\""position\"":-1,\""time\"":2741},{\""position\"":-1,\""time\"":3653},{\""position\"":1,\""time\"":4833},{\""position\"":1,\""time\"":4975},{\""position\"":-1,\""time\"":7619},{\""position\"":-1,\""time\"":7719},{\""position\"":-1,\""time\"":8662},{\""position\"":-1,\""time\"":11037},{\""position\"":1,\""time\"":12270}]"", ""playerTrackDict"": ""[{\""position\"":-1,\""time\"":8964},{\""position\"":0,\""time\"":9080},{\""position\"":1,\""time\"":12837}]"", ""internal_node_id"": ""0.0-25.0"", ""subjectId"": ""bzwcpqggvr"", ""earnedReward"": 27.5, ""playerCaughtTrackDict"": ""[{\""position\"":1,\""time\"":12945}]"", ""time_elapsed"": 452899, ""robberTrackArr"": ""[8,25,375,742,798,1413,2090,2257,3356,4006,4807,4893,5651,5892,5908,6485,7299,7402,7723,8846,9267,10878,11268,11743,12001,12186,12529,12945]"", ""playerIsCaught"": ""true"", ""tokkeWonTrackDict"": ""[{\""position\"":-1,\""time\"":8965},{\""position\"":1,\""time\"":12838}]"", ""trial_index"": 27}"
A1UKAS30R0MFI6:3JC6VJ2SACHWCYHCMVEE0BIWXAJA5W,28,1548013127976,"{""wonTokkens"": ""0"", ""trial_type"": ""AAALevelOne"", ""robberTrackColLamDict"": ""[{\""color\"":\""purple\"",\""parameter\"":\""&#955; = 3.5667\""}]"", ""tokkenTrackDict"": ""[{\""position\"":-1,\""time\"":8},{\""position\"":-1,\""time\"":908},{\""position\"":1,\""time\"":1769},{\""position\"":1,\""time\"":2705},{\""position\"":1,\""time\"":4556},{\""position\"":1,\""time\"":5123},{\""position\"":-1,\""time\"":6470},{\""position\"":-1,\""time\"":7079},{\""position\"":1,\""time\"":7823},{\""position\"":1,\""time\"":8252},{\""position\"":-1,\""time\"":9095},{\""position\"":-1,\""time\"":9631}]"", ""playerTrackDict"": ""[{\""position\"":-1,\""time\"":1213},{\""position\"":0,\""time\"":1484}]"", ""internal_node_id"": ""0.0-26.0"", ""subjectId"": ""bzwcpqggvr"", ""earnedReward"": 27.5, ""playerCaughtTrackDict"": ""[]"", ""time_elapsed"": 465035, ""robberTrackArr"": ""[9,14,595,859,1041,1076,1725,1732,2744,2774,3338,3675,3721,4005,5215,5462,5584,5883,5934,6026,6066,6143,6186,6205,6413,7070,7079,7151,7212,7337,7499,7592,8012,8277,8295,8318,8797]"", ""playerIsCaught"": ""false"", ""tokkeWonTrackDict"": ""[]"", ""trial_index"": 28}"
A1UKAS30R0MFI6:3JC6VJ2SACHWCYHCMVEE0BIWXAJA5W,29,1548013138501,"{""wonTokkens"": ""0"", ""trial_type"": ""AAALevelOne"", ""robberTrackColLamDict"": ""[{\""color\"":\""yellow\"",\""parameter\"":\""&#955; = 2.2314\""}]"", ""tokkenTrackDict"": ""[{\""position\"":1,\""time\"":8},{\""position\"":1,\""time\"":224},{\""position\"":-1,\""time\"":1142},{\""position\"":-1,\""time\"":1455},{\""position\"":1,\""time\"":3853},{\""position\"":1,\""time\"":4345},{\""position\"":-1,\""time\"":5515},{\""position\"":-1,\""time\"":5520},{\""position\"":-1,\""time\"":6759},{\""position\"":-1,\""time\"":6761},{\""position\"":-1,\""time\"":7862},{\""position\"":-1,\""time\"":8021}]"", ""playerTrackDict"": ""[{\""position\"":-1,\""time\"":1519},{\""position\"":0,\""time\"":1674}]"", ""internal_node_id"": ""0.0-27.0"", ""subjectId"": ""bzwcpqggvr"", ""earnedReward"": 27.5, ""playerCaughtTrackDict"": ""[]"", ""time_elapsed"": 475560, ""robberTrackArr"": ""[8,295,403,761,861,887,2099,2211,2783,3146,3615,3795,4035,4827,4889,5580,6851,6881,7230,7955]"", ""playerIsCaught"": ""false"", ""tokkeWonTrackDict"": ""[]"", ""trial_index"": 29}"
A1UKAS30R0MFI6:3JC6VJ2SACHWCYHCMVEE0BIWXAJA5W,30,1548013150768,"{""wonTokkens"": ""1"", ""trial_type"": ""AAALevelOne"", ""robberTrackColLamDict"": ""[{\""color\"":\""yellow\"",\""parameter\"":\""&#955; = 2.2314\""}]"", ""tokkenTrackDict"": ""[{\""position\"":1,\""time\"":6},{\""position\"":1,\""time\"":115},{\""position\"":1,\""time\"":2406},{\""position\"":1,\""time\"":3181},{\""position\"":1,\""time\"":3979},{\""position\"":1,\""time\"":4585},{\""position\"":-1,\""time\"":5364},{\""position\"":-1,\""time\"":5663},{\""position\"":-1,\""time\"":7377},{\""position\"":-1,\""time\"":7662},{\""position\"":-1,\""time\"":8885},{\""position\"":-1,\""time\"":9761}]"", ""playerTrackDict"": ""[{\""position\"":-1,\""time\"":9283},{\""position\"":0,\""time\"":9409}]"", ""internal_node_id"": ""0.0-28.0"", ""subjectId"": ""bzwcpqggvr"", ""earnedReward"": 27.5, ""playerCaughtTrackDict"": ""[]"", ""time_elapsed"": 487827, ""robberTrackArr"": ""[6,141,937,1371,1591,3469,3522,4047,4086,5049,5741,5791,6244,6293,7464,7872,7980,8298,9240]"", ""playerIsCaught"": ""false"", ""tokkeWonTrackDict"": ""[{\""position\"":-1,\""time\"":9284}]"", ""trial_index"": 30}"
A1UKAS30R0MFI6:3JC6VJ2SACHWCYHCMVEE0BIWXAJA5W,31,1548013165308,"{""wonTokkens"": ""1"", ""trial_type"": ""AAALevelOne"", ""robberTrackColLamDict"": ""[{\""color\"":\""purple\"",\""parameter\"":\""&#955; = 3.5667\""}]"", ""tokkenTrackDict"": ""[{\""position\"":-1,\""time\"":6},{\""position\"":-1,\""time\"":807},{\""position\"":1,\""time\"":1974},{\""position\"":1,\""time\"":2241},{\""position\"":1,\""time\"":4563},{\""position\"":1,\""time\"":5794},{\""position\"":1,\""time\"":7619},{\""position\"":1,\""time\"":8242},{\""position\"":1,\""time\"":9267},{\""position\"":1,\""time\"":9361},{\""position\"":1,\""time\"":11926},{\""position\"":1,\""time\"":12037}]"", ""playerTrackDict"": ""[{\""position\"":1,\""time\"":5485},{\""position\"":0,\""time\"":5584}]"", ""internal_node_id"": ""0.0-29.0"", ""subjectId"": ""bzwcpqggvr"", ""earnedReward"": 27.5, ""playerCaughtTrackDict"": ""[]"", ""time_elapsed"": 502367, ""robberTrackArr"": ""[8,892,1422,1787,2401,2672,2987,3844,3923,3966,4006,4057,4111,4252,4297,4499,4502,4924,5389,6141,6562,6819,6868,7137,7301,7525,8167,8174,8762,8818,8961,9010,9199,9243,9246,9523,9669,10258,10430,10816,10830,11169,11311]"", ""playerIsCaught"": ""false"", ""tokkeWonTrackDict"": ""[{\""position\"":1,\""time\"":5486}]"", ""trial_index"": 31}"
A1UKAS30R0MFI6:3JC6VJ2SACHWCYHCMVEE0BIWXAJA5W,32,1548013184534,"{""wonTokkens"": ""0"", ""trial_type"": ""AAALevelOne"", ""robberTrackColLamDict"": ""[{\""color\"":\""purple\"",\""parameter\"":\""&#955; = 3.5667\""}]"", ""tokkenTrackDict"": ""[{\""position\"":1,\""time\"":6},{\""position\"":1,\""time\"":1536},{\""position\"":-1,\""time\"":4155},{\""position\"":-1,\""time\"":4449},{\""position\"":-1,\""time\"":5494},{\""position\"":-1,\""time\"":6040},{\""position\"":-1,\""time\"":9369},{\""position\"":-1,\""time\"":9877},{\""position\"":-1,\""time\"":10624},{\""position\"":-1,\""time\"":12534},{\""position\"":-1,\""time\"":14059}]"", ""playerTrackDict"": ""[{\""position\"":-1,\""time\"":10021},{\""position\"":0,\""time\"":10243},{\""position\"":-1,\""time\"":11583},{\""position\"":0,\""time\"":11690},{\""position\"":-1,\""time\"":14789}]"", ""internal_node_id"": ""0.0-30.0"", ""subjectId"": ""bzwcpqggvr"", ""earnedReward"": 27.5, ""playerCaughtTrackDict"": ""[{\""position\"":-1,\""time\"":14813}]"", ""time_elapsed"": 521593, ""robberTrackArr"": ""[8,1483,1527,2043,2861,2963,3122,3170,4306,4401,4473,4858,4918,5248,5593,5721,5983,6162,6738,7328,7669,8273,8334,8456,8701,9132,9506,9660,9762,9791,10283,10302,10315,10396,10425,10870,11703,12187,12206,12642,12686,13792,14761,14766,14813]"", ""playerIsCaught"": ""true"", ""tokkeWonTrackDict"": ""[{\""position\"":-1,\""time\"":11583},{\""position\"":-1,\""time\"":14790}]"", ""trial_index"": 32}"
A1UKAS30R0MFI6:3JC6VJ2SACHWCYHCMVEE0BIWXAJA5W,33,1548013198844,"{""wonTokkens"": ""0"", ""trial_type"": ""AAALevelOne"", ""robberTrackColLamDict"": ""[{\""color\"":\""azure\"",\""parameter\"":\""&#955; = 1.0536\""}]"", ""tokkenTrackDict"": ""[{\""position\"":1,\""time\"":6},{\""position\"":1,\""time\"":538},{\""position\"":1,\""time\"":1883}]"", ""playerTrackDict"": ""[{\""position\"":1,\""time\"":2317}]"", ""internal_node_id"": ""0.0-31.0"", ""subjectId"": ""bzwcpqggvr"", ""earnedReward"": 27.5, ""playerCaughtTrackDict"": ""[{\""position\"":1,\""time\"":2433}]"", ""time_elapsed"": 535902, ""robberTrackArr"": ""[7,1843,2040,2433]"", ""playerIsCaught"": ""true"", ""tokkeWonTrackDict"": ""[{\""position\"":1,\""time\"":2318}]"", ""trial_index"": 33}"
A1UKAS30R0MFI6:3JC6VJ2SACHWCYHCMVEE0BIWXAJA5W,34,1548013214487,"{""wonTokkens"": ""0"", ""trial_type"": ""AAALevelOne"", ""robberTrackColLamDict"": ""[{\""color\"":\""purple\"",\""parameter\"":\""&#955; = 3.5667\""}]"", ""tokkenTrackDict"": ""[{\""position\"":-1,\""time\"":14},{\""position\"":-1,\""time\"":778},{\""position\"":-1,\""time\"":3390}]"", ""playerTrackDict"": ""[{\""position\"":-1,\""time\"":3875}]"", ""internal_node_id"": ""0.0-32.0"", ""subjectId"": ""bzwcpqggvr"", ""earnedReward"": 27.5, ""playerCaughtTrackDict"": ""[{\""position\"":-1,\""time\"":3878}]"", ""time_elapsed"": 551546, ""robberTrackArr"": ""[16,298,557,834,1516,1682,1728,1891,1976,1993,3046,3138,3310,3424,3878]"", ""playerIsCaught"": ""true"", ""tokkeWonTrackDict"": ""[{\""position\"":-1,\""time\"":3875}]"", ""trial_index"": 34}"
A1UKAS30R0MFI6:3JC6VJ2SACHWCYHCMVEE0BIWXAJA5W,35,1548013229818,"{""wonTokkens"": ""1"", ""trial_type"": ""AAALevelOne"", ""robberTrackColLamDict"": ""[{\""color\"":\""azure\"",\""parameter\"":\""&#955; = 1.0536\""}]"", ""tokkenTrackDict"": ""[{\""position\"":1,\""time\"":11},{\""position\"":1,\""time\"":338},{\""position\"":-1,\""time\"":1475},{\""position\"":-1,\""time\"":2393},{\""position\"":1,\""time\"":6426},{\""position\"":1,\""time\"":6728},{\""position\"":-1,\""time\"":8000},{\""position\"":-1,\""time\"":8135},{\""position\"":-1,\""time\"":9948},{\""position\"":-1,\""time\"":10261},{\""position\"":1,\""time\"":11918},{\""position\"":1,\""time\"":12825}]"", ""playerTrackDict"": ""[{\""position\"":-1,\""time\"":2266},{\""position\"":0,\""time\"":2363}]"", ""internal_node_id"": ""0.0-33.0"", ""subjectId"": ""bzwcpqggvr"", ""earnedReward"": 27.5, ""playerCaughtTrackDict"": ""[]"", ""time_elapsed"": 566877, ""robberTrackArr"": ""[11,427,1572,3027,3215,3406,3474,6759,6767,6983,9374,11033,12113,12314]"", ""playerIsCaught"": ""false"", ""tokkeWonTrackDict"": ""[{\""position\"":-1,\""time\"":2267}]"", ""trial_index"": 35}"
A1UKAS30R0MFI6:3JC6VJ2SACHWCYHCMVEE0BIWXAJA5W,36,1548013243938,"{""wonTokkens"": ""1"", ""trial_type"": ""AAALevelOne"", ""robberTrackColLamDict"": ""[{\""color\"":\""purple\"",\""parameter\"":\""&#955; = 3.5667\""}]"", ""tokkenTrackDict"": ""[{\""position\"":1,\""time\"":6},{\""position\"":1,\""time\"":242},{\""position\"":-1,\""time\"":2049},{\""position\"":-1,\""time\"":3251},{\""position\"":-1,\""time\"":4412},{\""position\"":-1,\""time\"":4767},{\""position\"":-1,\""time\"":5829},{\""position\"":-1,\""time\"":7268},{\""position\"":-1,\""time\"":8151},{\""position\"":-1,\""time\"":8857},{\""position\"":-1,\""time\"":11462},{\""position\"":-1,\""time\"":11616}]"", ""playerTrackDict"": ""[{\""position\"":-1,\""time\"":2419},{\""position\"":0,\""time\"":2512},{\""position\"":-1,\""time\"":9006},{\""position\"":0,\""time\"":9165}]"", ""internal_node_id"": ""0.0-34.0"", ""subjectId"": ""bzwcpqggvr"", ""earnedReward"": 27.5, ""playerCaughtTrackDict"": ""[]"", ""time_elapsed"": 580997, ""robberTrackArr"": ""[6,94,106,242,514,623,803,808,1228,1957,2033,2058,2662,3104,3474,3641,3660,3821,3933,4064,4736,4794,4940,5097,5395,5721,6180,6204,6414,7291,7347,7378,7424,7467,7690,7882,8055,8104,8142,8154,8370,8433,8450,8922,9269,9529,10628,10934,10942,11089,11273]"", ""playerIsCaught"": ""false"", ""tokkeWonTrackDict"": ""[{\""position\"":-1,\""time\"":2420}]"", ""trial_index"": 36}"
A1UKAS30R0MFI6:3JC6VJ2SACHWCYHCMVEE0BIWXAJA5W,37,1548013260716,"{""wonTokkens"": ""0"", ""trial_type"": ""AAALevelOne"", ""robberTrackColLamDict"": ""[{\""color\"":\""azure\"",\""parameter\"":\""&#955; = 1.0536\""}]"", ""tokkenTrackDict"": ""[{\""position\"":1,\""time\"":5},{\""position\"":1,\""time\"":105},{\""position\"":-1,\""time\"":1876},{\""position\"":-1,\""time\"":2211},{\""position\"":-1,\""time\"":3526},{\""position\"":-1,\""time\"":5963},{\""position\"":-1,\""time\"":7364},{\""position\"":-1,\""time\"":7693},{\""position\"":-1,\""time\"":8449}]"", ""playerTrackDict"": ""[{\""position\"":-1,\""time\"":2158},{\""position\"":0,\""time\"":2227},{\""position\"":1,\""time\"":8034},{\""position\"":0,\""time\"":8072},{\""position\"":1,\""time\"":8272},{\""position\"":0,\""time\"":8606},{\""position\"":-1,\""time\"":8888}]"", ""internal_node_id"": ""0.0-35.0"", ""subjectId"": ""bzwcpqggvr"", ""earnedReward"": 27.5, ""playerCaughtTrackDict"": ""[{\""position\"":-1,\""time\"":8952}]"", ""time_elapsed"": 597775, ""robberTrackArr"": ""[8,249,1688,3704,4798,6199,8146,8952]"", ""playerIsCaught"": ""true"", ""tokkeWonTrackDict"": ""[{\""position\"":-1,\""time\"":2158},{\""position\"":-1,\""time\"":8888}]"", ""trial_index"": 37}"
A1UKAS30R0MFI6:3JC6VJ2SACHWCYHCMVEE0BIWXAJA5W,38,1548013275466,"{""wonTokkens"": ""0"", ""trial_type"": ""AAALevelOne"", ""robberTrackColLamDict"": ""[{\""color\"":\""purple\"",\""parameter\"":\""&#955; = 3.5667\""}]"", ""tokkenTrackDict"": ""[{\""position\"":-1,\""time\"":7},{\""position\"":-1,\""time\"":672},{\""position\"":-1,\""time\"":1995},{\""position\"":-1,\""time\"":2846},{\""position\"":-1,\""time\"":3646},{\""position\"":-1,\""time\"":3662},{\""position\"":1,\""time\"":6179},{\""position\"":1,\""time\"":6278},{\""position\"":1,\""time\"":7777},{\""position\"":1,\""time\"":9469},{\""position\"":-1,\""time\"":10182},{\""position\"":-1,\""time\"":12247}]"", ""playerTrackDict"": ""[]"", ""internal_node_id"": ""0.0-36.0"", ""subjectId"": ""bzwcpqggvr"", ""earnedReward"": 27.5, ""playerCaughtTrackDict"": ""[]"", ""time_elapsed"": 612525, ""robberTrackArr"": ""[8,149,344,884,1521,1581,2060,2621,3079,3079,3247,4066,4461,5191,5204,5602,5666,6481,6729,6980,7141,7487,7555,7560,8016,8430,8838,8956,9128,9321,9531,10039,10340,10629,10985,11145,11309,11376,11571,11674,11851]"", ""playerIsCaught"": ""false"", ""tokkeWonTrackDict"": ""[]"", ""trial_index"": 38}"
A1UKAS30R0MFI6:3JC6VJ2SACHWCYHCMVEE0BIWXAJA5W,39,1548013278519,"{""rt"": 2051, ""trial_type"": ""text"", ""internal_node_id"": ""0.0-37.0"", ""subjectId"": ""bzwcpqggvr"", ""earnedReward"": 27.5, ""time_elapsed"": 615578, ""key_press"": 32, ""trial_index"": 39}"
A1UKAS30R0MFI6:3JC6VJ2SACHWCYHCMVEE0BIWXAJA5W,40,1548013293049,"{""wonTokkens"": ""5"", ""trial_type"": ""AAALevelOne"", ""robberTrackColLamDict"": ""[{\""color\"":\""azure\"",\""parameter\"":\""&#955; = 1.0536\""}]"", ""tokkenTrackDict"": ""[{\""position\"":1,\""time\"":7},{\""position\"":1,\""time\"":1033},{\""position\"":1,\""time\"":2376},{\""position\"":1,\""time\"":3476},{\""position\"":1,\""time\"":4444},{\""position\"":1,\""time\"":5020},{\""position\"":-1,\""time\"":6284},{\""position\"":-1,\""time\"":6930},{\""position\"":1,\""time\"":8253},{\""position\"":1,\""time\"":11143},{\""position\"":1,\""time\"":11926},{\""position\"":1,\""time\"":12025}]"", ""playerTrackDict"": ""[{\""position\"":1,\""time\"":689},{\""position\"":0,\""time\"":886},{\""position\"":1,\""time\"":2738},{\""position\"":0,\""time\"":2839},{\""position\"":1,\""time\"":4758},{\""position\"":0,\""time\"":4871},{\""position\"":-1,\""time\"":6620},{\""position\"":0,\""time\"":6717},{\""position\"":1,\""time\"":8638},{\""position\"":0,\""time\"":8731}]"", ""internal_node_id"": ""0.0-38.0"", ""subjectId"": ""bzwcpqggvr"", ""earnedReward"": 27.5, ""playerCaughtTrackDict"": ""[]"", ""time_elapsed"": 630108, ""robberTrackArr"": ""[8,1325,1516,2562,3210,4881,8760,11555,11799]"", ""playerIsCaught"": ""false"", ""tokkeWonTrackDict"": ""[{\""position\"":1,\""time\"":689},{\""position\"":1,\""time\"":2738},{\""position\"":1,\""time\"":4759},{\""position\"":-1,\""time\"":6621},{\""position\"":1,\""time\"":8639}]"", ""trial_index"": 40}"
A1UKAS30R0MFI6:3JC6VJ2SACHWCYHCMVEE0BIWXAJA5W,41,1548013307952,"{""wonTokkens"": ""4"", ""trial_type"": ""AAALevelOne"", ""robberTrackColLamDict"": ""[{\""color\"":\""yellow\"",\""parameter\"":\""&#955; = 2.2314\""}]"", ""tokkenTrackDict"": ""[{\""position\"":-1,\""time\"":7},{\""position\"":-1,\""time\"":1485},{\""position\"":1,\""time\"":2843},{\""position\"":1,\""time\"":3526},{\""position\"":1,\""time\"":4476},{\""position\"":1,\""time\"":4644},{\""position\"":-1,\""time\"":5563},{\""position\"":-1,\""time\"":7569},{\""position\"":1,\""time\"":9922},{\""position\"":1,\""time\"":10337},{\""position\"":-1,\""time\"":11304},{\""position\"":-1,\""time\"":12393}]"", ""playerTrackDict"": ""[{\""position\"":-1,\""time\"":592},{\""position\"":0,\""time\"":681},{\""position\"":1,\""time\"":3174},{\""position\"":0,\""time\"":3218},{\""position\"":-1,\""time\"":5925},{\""position\"":0,\""time\"":6046},{\""position\"":-1,\""time\"":12091},{\""position\"":0,\""time\"":12147}]"", ""internal_node_id"": ""0.0-39.0"", ""subjectId"": ""bzwcpqggvr"", ""earnedReward"": 27.5, ""playerCaughtTrackDict"": ""[]"", ""time_elapsed"": 645011, ""robberTrackArr"": ""[8,22,26,341,791,1189,1895,1989,2200,2657,2836,2867,3003,3340,3341,4263,4281,5191,5268,5445,5689,5689,6119,6712,6891,8352,8627,8917,9047,9570,11111,11321,11696,11746,12217,12346]"", ""playerIsCaught"": ""false"", ""tokkeWonTrackDict"": ""[{\""position\"":-1,\""time\"":592},{\""position\"":1,\""time\"":3174},{\""position\"":-1,\""time\"":5926},{\""position\"":-1,\""time\"":12092}]"", ""trial_index"": 41}"
A1UKAS30R0MFI6:3JC6VJ2SACHWCYHCMVEE0BIWXAJA5W,42,1548013322669,"{""wonTokkens"": ""5"", ""trial_type"": ""AAALevelOne"", ""robberTrackColLamDict"": ""[{\""color\"":\""yellow\"",\""parameter\"":\""&#955; = 2.2314\""}]"", ""tokkenTrackDict"": ""[{\""position\"":1,\""time\"":15},{\""position\"":1,\""time\"":712},{\""position\"":-1,\""time\"":1953},{\""position\"":-1,\""time\"":2834},{\""position\"":1,\""time\"":4025},{\""position\"":1,\""time\"":5237},{\""position\"":-1,\""time\"":6288},{\""position\"":-1,\""time\"":7024},{\""position\"":-1,\""time\"":8947},{\""position\"":-1,\""time\"":9246},{\""position\"":1,\""time\"":11436},{\""position\"":1,\""time\"":12207}]"", ""playerTrackDict"": ""[{\""position\"":1,\""time\"":629},{\""position\"":0,\""time\"":686},{\""position\"":-1,\""time\"":2285},{\""position\"":0,\""time\"":2425},{\""position\"":1,\""time\"":4310},{\""position\"":0,\""time\"":4413},{\""position\"":-1,\""time\"":6564},{\""position\"":0,\""time\"":6638},{\""position\"":-1,\""time\"":9291},{\""position\"":0,\""time\"":9403},{\""position\"":1,\""time\"":11975},{\""position\"":0,\""time\"":12054}]"", ""internal_node_id"": ""0.0-40.0"", ""subjectId"": ""bzwcpqggvr"", ""earnedReward"": 27.5, ""playerCaughtTrackDict"": ""[]"", ""time_elapsed"": 659727, ""robberTrackArr"": ""[15,360,581,581,1131,1367,2944,3412,3873,3941,3995,4186,4884,5143,5385,5451,6414,7107,7780,7857,8153,9064,10109,10202,10358,10895,11379,11424,11664,11780]"", ""playerIsCaught"": ""false"", ""tokkeWonTrackDict"": ""[{\""position\"":1,\""time\"":630},{\""position\"":-1,\""time\"":2287},{\""position\"":1,\""time\"":4310},{\""position\"":-1,\""time\"":6564},{\""position\"":1,\""time\"":11975}]"", ""trial_index"": 42}"
A1UKAS30R0MFI6:3JC6VJ2SACHWCYHCMVEE0BIWXAJA5W,43,1548013340980,"{""wonTokkens"": ""2"", ""trial_type"": ""AAALevelOne"", ""robberTrackColLamDict"": ""[{\""color\"":\""azure\"",\""parameter\"":\""&#955; = 1.0536\""}]"", ""tokkenTrackDict"": ""[{\""position\"":1,\""time\"":6},{\""position\"":1,\""time\"":375},{\""position\"":1,\""time\"":1999},{\""position\"":1,\""time\"":2444},{\""position\"":1,\""time\"":3224},{\""position\"":1,\""time\"":8256},{\""position\"":-1,\""time\"":11072},{\""position\"":-1,\""time\"":11263},{\""position\"":1,\""time\"":12458},{\""position\"":1,\""time\"":12760},{\""position\"":-1,\""time\"":14469},{\""position\"":-1,\""time\"":15807}]"", ""playerTrackDict"": ""[{\""position\"":1,\""time\"":2302},{\""position\"":0,\""time\"":2382},{\""position\"":1,\""time\"":6520},{\""position\"":0,\""time\"":6552}]"", ""internal_node_id"": ""0.0-41.0"", ""subjectId"": ""bzwcpqggvr"", ""earnedReward"": 27.5, ""playerCaughtTrackDict"": ""[]"", ""time_elapsed"": 678039, ""robberTrackArr"": ""[14,24,1023,1668,2066,2550,2669,3830,6253,6721,6743,7185,8301,8388,8781,10348,10618,10669,11376,12201,12826,14899,15668]"", ""playerIsCaught"": ""false"", ""tokkeWonTrackDict"": ""[{\""position\"":1,\""time\"":2303},{\""position\"":1,\""time\"":6520}]"", ""trial_index"": 43}"
A1UKAS30R0MFI6:3JC6VJ2SACHWCYHCMVEE0BIWXAJA5W,44,1548013355182,"{""wonTokkens"": ""2"", ""trial_type"": ""AAALevelOne"", ""robberTrackColLamDict"": ""[{\""color\"":\""purple\"",\""parameter\"":\""&#955; = 3.5667\""}]"", ""tokkenTrackDict"": ""[{\""position\"":1,\""time\"":16},{\""position\"":1,\""time\"":675},{\""position\"":1,\""time\"":1624},{\""position\"":1,\""time\"":3063},{\""position\"":-1,\""time\"":4829},{\""position\"":-1,\""time\"":4932},{\""position\"":-1,\""time\"":7346},{\""position\"":-1,\""time\"":7732},{\""position\"":1,\""time\"":8971},{\""position\"":1,\""time\"":9030},{\""position\"":-1,\""time\"":10090},{\""position\"":-1,\""time\"":11698}]"", ""playerTrackDict"": ""[{\""position\"":1,\""time\"":2401},{\""position\"":0,\""time\"":2402},{\""position\"":-1,\""time\"":5137},{\""position\"":0,\""time\"":5263},{\""position\"":-1,\""time\"":11270},{\""position\"":0,\""time\"":11432}]"", ""internal_node_id"": ""0.0-42.0"", ""subjectId"": ""bzwcpqggvr"", ""earnedReward"": 27.5, ""playerCaughtTrackDict"": ""[]"", ""time_elapsed"": 692241, ""robberTrackArr"": ""[17,993,1159,1176,1362,1418,1419,1711,1898,2131,2283,2321,2454,2603,2642,3135,3222,3461,3597,4045,4388,4654,5071,5645,5787,7044,7500,7550,8955,9294,9742,9925,10135,10686,11168]"", ""playerIsCaught"": ""false"", ""tokkeWonTrackDict"": ""[{\""position\"":1,\""time\"":2401},{\""position\"":-1,\""time\"":11271}]"", ""trial_index"": 44}"
A1UKAS30R0MFI6:3JC6VJ2SACHWCYHCMVEE0BIWXAJA5W,45,1548013372008,"{""wonTokkens"": ""0"", ""trial_type"": ""AAALevelOne"", ""robberTrackColLamDict"": ""[{\""color\"":\""azure\"",\""parameter\"":\""&#955; = 1.0536\""}]"", ""tokkenTrackDict"": ""[{\""position\"":1,\""time\"":6},{\""position\"":1,\""time\"":2312},{\""position\"":1,\""time\"":4864}]"", ""playerTrackDict"": ""[{\""position\"":1,\""time\"":841},{\""position\"":0,\""time\"":887},{\""position\"":1,\""time\"":5495}]"", ""internal_node_id"": ""0.0-43.0"", ""subjectId"": ""bzwcpqggvr"", ""earnedReward"": 27.5, ""playerCaughtTrackDict"": ""[{\""position\"":1,\""time\"":5564}]"", ""time_elapsed"": 709067, ""robberTrackArr"": ""[9,1171,2254,2590,4641,5393,5564]"", ""playerIsCaught"": ""true"", ""tokkeWonTrackDict"": ""[{\""position\"":1,\""time\"":841},{\""position\"":1,\""time\"":5496}]"", ""trial_index"": 45}"
A1UKAS30R0MFI6:3JC6VJ2SACHWCYHCMVEE0BIWXAJA5W,46,1548013384793,"{""wonTokkens"": ""2"", ""trial_type"": ""AAALevelOne"", ""robberTrackColLamDict"": ""[{\""color\"":\""yellow\"",\""parameter\"":\""&#955; = 2.2314\""}]"", ""tokkenTrackDict"": ""[{\""position\"":-1,\""time\"":6},{\""position\"":-1,\""time\"":3283},{\""position\"":1,\""time\"":5445},{\""position\"":1,\""time\"":5456},{\""position\"":1,\""time\"":6282},{\""position\"":1,\""time\"":6623},{\""position\"":1,\""time\"":7430},{\""position\"":1,\""time\"":7696},{\""position\"":1,\""time\"":8957},{\""position\"":1,\""time\"":9288},{\""position\"":1,\""time\"":10029},{\""position\"":1,\""time\"":10279}]"", ""playerTrackDict"": ""[{\""position\"":-1,\""time\"":902},{\""position\"":0,\""time\"":1004},{\""position\"":1,\""time\"":9287},{\""position\"":0,\""time\"":9339}]"", ""internal_node_id"": ""0.0-44.0"", ""subjectId"": ""bzwcpqggvr"", ""earnedReward"": 27.5, ""playerCaughtTrackDict"": ""[]"", ""time_elapsed"": 721852, ""robberTrackArr"": ""[7,1824,1958,3004,3268,3665,4075,4438,4637,5006,5658,5916,6122,6234,6440,6547,6689,8050,8404,8416,8749,8982,9745]"", ""playerIsCaught"": ""false"", ""tokkeWonTrackDict"": ""[{\""position\"":-1,\""time\"":902},{\""position\"":1,\""time\"":9288}]"", ""trial_index"": 46}"
A1UKAS30R0MFI6:3JC6VJ2SACHWCYHCMVEE0BIWXAJA5W,47,1548013397063,"{""wonTokkens"": ""3"", ""trial_type"": ""AAALevelOne"", ""robberTrackColLamDict"": ""[{\""color\"":\""purple\"",\""parameter\"":\""&#955; = 3.5667\""}]"", ""tokkenTrackDict"": ""[{\""position\"":1,\""time\"":6},{\""position\"":1,\""time\"":328},{\""position\"":1,\""time\"":2020},{\""position\"":1,\""time\"":2224},{\""position\"":-1,\""time\"":3058},{\""position\"":-1,\""time\"":4266},{\""position\"":1,\""time\"":4987},{\""position\"":1,\""time\"":4998},{\""position\"":1,\""time\"":6343},{\""position\"":1,\""time\"":8157},{\""position\"":1,\""time\"":9169},{\""position\"":1,\""time\"":9765}]"", ""playerTrackDict"": ""[{\""position\"":-1,\""time\"":4212},{\""position\"":0,\""time\"":4395},{\""position\"":1,\""time\"":6660},{\""position\"":0,\""time\"":6749},{\""position\"":1,\""time\"":9549},{\""position\"":0,\""time\"":9656}]"", ""internal_node_id"": ""0.0-45.0"", ""subjectId"": ""bzwcpqggvr"", ""earnedReward"": 27.5, ""playerCaughtTrackDict"": ""[]"", ""time_elapsed"": 734122, ""robberTrackArr"": ""[7,70,233,985,1134,1395,1797,2214,2232,2671,2881,2987,3065,3146,3240,3832,4941,5184,5218,5303,5666,6189,6430,6590,7079,7316,7416,7923,8238,8584]"", ""playerIsCaught"": ""false"", ""tokkeWonTrackDict"": ""[{\""position\"":-1,\""time\"":4213},{\""position\"":1,\""time\"":6661},{\""position\"":1,\""time\"":9549}]"", ""trial_index"": 47}"
A1UKAS30R0MFI6:3JC6VJ2SACHWCYHCMVEE0BIWXAJA5W,48,1548013413688,"{""wonTokkens"": ""0"", ""trial_type"": ""AAALevelOne"", ""robberTrackColLamDict"": ""[{\""color\"":\""purple\"",\""parameter\"":\""&#955; = 3.5667\""}]"", ""tokkenTrackDict"": ""[{\""position\"":-1,\""time\"":8},{\""position\"":-1,\""time\"":822},{\""position\"":1,\""time\"":1600},{\""position\"":1,\""time\"":2270},{\""position\"":1,\""time\"":4271}]"", ""playerTrackDict"": ""[{\""position\"":-1,\""time\"":799},{\""position\"":0,\""time\"":855},{\""position\"":1,\""time\"":4617}]"", ""internal_node_id"": ""0.0-46.0"", ""subjectId"": ""bzwcpqggvr"", ""earnedReward"": 27.5, ""playerCaughtTrackDict"": ""[{\""position\"":1,\""time\"":4700}]"", ""time_elapsed"": 750747, ""robberTrackArr"": ""[8,8,50,56,280,496,632,723,1396,2284,2346,2619,2982,3497,4700]"", ""playerIsCaught"": ""true"", ""tokkeWonTrackDict"": ""[{\""position\"":-1,\""time\"":800},{\""position\"":1,\""time\"":4619}]"", ""trial_index"": 48}"
A1UKAS30R0MFI6:3JC6VJ2SACHWCYHCMVEE0BIWXAJA5W,49,1548013433224,"{""wonTokkens"": ""0"", ""trial_type"": ""AAALevelOne"", ""robberTrackColLamDict"": ""[{\""color\"":\""azure\"",\""parameter\"":\""&#955; = 1.0536\""}]"", ""tokkenTrackDict"": ""[{\""position\"":-1,\""time\"":6},{\""position\"":-1,\""time\"":561},{\""position\"":1,\""time\"":2991},{\""position\"":1,\""time\"":4703},{\""position\"":-1,\""time\"":5413}]"", ""playerTrackDict"": ""[{\""position\"":-1,\""time\"":6658}]"", ""internal_node_id"": ""0.0-47.0"", ""subjectId"": ""bzwcpqggvr"", ""earnedReward"": 27.5, ""playerCaughtTrackDict"": ""[{\""position\"":-1,\""time\"":6689}]"", ""time_elapsed"": 770283, ""robberTrackArr"": ""[8,1753,2342,2920,3204,3442,4805,5552,6586,6689]"", ""playerIsCaught"": ""true"", ""tokkeWonTrackDict"": ""[{\""position\"":-1,\""time\"":6659}]"", ""trial_index"": 49}"
A1UKAS30R0MFI6:3JC6VJ2SACHWCYHCMVEE0BIWXAJA5W,50,1548013449442,"{""wonTokkens"": ""2"", ""trial_type"": ""AAALevelOne"", ""robberTrackColLamDict"": ""[{\""color\"":\""purple\"",\""parameter\"":\""&#955; = 3.5667\""}]"", ""tokkenTrackDict"": ""[{\""position\"":-1,\""time\"":5},{\""position\"":-1,\""time\"":495},{\""position\"":-1,\""time\"":1439},{\""position\"":-1,\""time\"":1554},{\""position\"":-1,\""time\"":2658},{\""position\"":-1,\""time\"":3967},{\""position\"":1,\""time\"":5411},{\""position\"":1,\""time\"":7410},{\""position\"":-1,\""time\"":10044},{\""position\"":-1,\""time\"":10507},{\""position\"":-1,\""time\"":13397},{\""position\"":-1,\""time\"":13712}]"", ""playerTrackDict"": ""[{\""position\"":-1,\""time\"":3355},{\""position\"":0,\""time\"":3476},{\""position\"":1,\""time\"":6230},{\""position\"":0,\""time\"":6318}]"", ""internal_node_id"": ""0.0-48.0"", ""subjectId"": ""bzwcpqggvr"", ""earnedReward"": 27.5, ""playerCaughtTrackDict"": ""[]"", ""time_elapsed"": 786501, ""robberTrackArr"": ""[7,58,1711,1798,1870,1952,2568,2627,2783,2907,2916,2990,3217,3771,4093,4213,4375,4946,4969,6976,7152,8856,8961,9244,9397,9434,9571,10235,10906,10939,11292,11721,12024,12151,12314,12632,12653,13271,13451]"", ""playerIsCaught"": ""false"", ""tokkeWonTrackDict"": ""[{\""position\"":-1,\""time\"":3356},{\""position\"":1,\""time\"":6233}]"", ""trial_index"": 50}"
A1UKAS30R0MFI6:3JC6VJ2SACHWCYHCMVEE0BIWXAJA5W,51,1548013460014,"{""wonTokkens"": ""1"", ""trial_type"": ""AAALevelOne"", ""robberTrackColLamDict"": ""[{\""color\"":\""yellow\"",\""parameter\"":\""&#955; = 2.2314\""}]"", ""tokkenTrackDict"": ""[{\""position\"":-1,\""time\"":5},{\""position\"":-1,\""time\"":185},{\""position\"":-1,\""time\"":1679},{\""position\"":-1,\""time\"":2070},{\""position\"":-1,\""time\"":3541},{\""position\"":-1,\""time\"":3619},{\""position\"":-1,\""time\"":4379},{\""position\"":-1,\""time\"":4507},{\""position\"":1,\""time\"":6231},{\""position\"":1,\""time\"":6238},{\""position\"":-1,\""time\"":7863},{\""position\"":-1,\""time\"":8066}]"", ""playerTrackDict"": ""[{\""position\"":-1,\""time\"":2035},{\""position\"":0,\""time\"":2146}]"", ""internal_node_id"": ""0.0-49.0"", ""subjectId"": ""bzwcpqggvr"", ""earnedReward"": 27.5, ""playerCaughtTrackDict"": ""[]"", ""time_elapsed"": 797073, ""robberTrackArr"": ""[7,328,786,835,1159,1617,1662,1691,1868,2032,2258,2337,2377,2624,3069,3367,4103,4384,4573,4768,4812,5647,5725,6028,7657]"", ""playerIsCaught"": ""false"", ""tokkeWonTrackDict"": ""[{\""position\"":-1,\""time\"":2036}]"", ""trial_index"": 51}"
A1UKAS30R0MFI6:3JC6VJ2SACHWCYHCMVEE0BIWXAJA5W,52,1548013476039,"{""wonTokkens"": ""1"", ""trial_type"": ""AAALevelOne"", ""robberTrackColLamDict"": ""[{\""color\"":\""yellow\"",\""parameter\"":\""&#955; = 2.2314\""}]"", ""tokkenTrackDict"": ""[{\""position\"":-1,\""time\"":4},{\""position\"":-1,\""time\"":597},{\""position\"":-1,\""time\"":1913},{\""position\"":-1,\""time\"":3124},{\""position\"":-1,\""time\"":3878},{\""position\"":-1,\""time\"":4325},{\""position\"":1,\""time\"":7204},{\""position\"":1,\""time\"":7344},{\""position\"":-1,\""time\"":9563},{\""position\"":-1,\""time\"":9765},{\""position\"":1,\""time\"":12758},{\""position\"":1,\""time\"":13520}]"", ""playerTrackDict"": ""[{\""position\"":-1,\""time\"":2342},{\""position\"":0,\""time\"":2478}]"", ""internal_node_id"": ""0.0-50.0"", ""subjectId"": ""bzwcpqggvr"", ""earnedReward"": 27.5, ""playerCaughtTrackDict"": ""[]"", ""time_elapsed"": 813098, ""robberTrackArr"": ""[8,45,267,351,599,1076,1882,1978,2129,2981,2998,3060,3603,5482,5544,5600,5662,5994,6378,6933,7250,9955,10180,10245,11128,11985,12651,13083,13185]"", ""playerIsCaught"": ""false"", ""tokkeWonTrackDict"": ""[{\""position\"":-1,\""time\"":2344}]"", ""trial_index"": 52}"
A1UKAS30R0MFI6:3JC6VJ2SACHWCYHCMVEE0BIWXAJA5W,53,1548013492600,"{""wonTokkens"": ""4"", ""trial_type"": ""AAALevelOne"", ""robberTrackColLamDict"": ""[{\""color\"":\""purple\"",\""parameter\"":\""&#955; = 3.5667\""}]"", ""tokkenTrackDict"": ""[{\""position\"":-1,\""time\"":7},{\""position\"":-1,\""time\"":2129},{\""position\"":-1,\""time\"":2865},{\""position\"":-1,\""time\"":3925},{\""position\"":1,\""time\"":4953},{\""position\"":1,\""time\"":6700},{\""position\"":1,\""time\"":8228},{\""position\"":1,\""time\"":8406},{\""position\"":-1,\""time\"":9717},{\""position\"":-1,\""time\"":11078},{\""position\"":-1,\""time\"":12499},{\""position\"":-1,\""time\"":14055}]"", ""playerTrackDict"": ""[{\""position\"":-1,\""time\"":783},{\""position\"":0,\""time\"":877},{\""position\"":-1,\""time\"":3911},{\""position\"":0,\""time\"":3967},{\""position\"":1,\""time\"":5722},{\""position\"":0,\""time\"":5840},{\""position\"":1,\""time\"":8557},{\""position\"":0,\""time\"":8641},{\""position\"":-1,\""time\"":10602},{\""position\"":0,\""time\"":10723}]"", ""internal_node_id"": ""0.0-51.0"", ""subjectId"": ""bzwcpqggvr"", ""earnedReward"": 27.5, ""playerCaughtTrackDict"": ""[]"", ""time_elapsed"": 829659, ""robberTrackArr"": ""[7,271,554,1054,1296,1303,1457,1556,2572,3506,3576,3711,3715,4467,4649,4757,5380,6405,6828,7150,7313,7599,8231,9010,9467,9510,10042,10392,10798,10911,11097,11150,11421,11592,12138,12235,12242,12252,12344,12589,12825,13111,13218,13665]"", ""playerIsCaught"": ""false"", ""tokkeWonTrackDict"": ""[{\""position\"":-1,\""time\"":784},{\""position\"":-1,\""time\"":3911},{\""position\"":1,\""time\"":5724},{\""position\"":-1,\""time\"":10603}]"", ""trial_index"": 53}"
A1UKAS30R0MFI6:3JC6VJ2SACHWCYHCMVEE0BIWXAJA5W,54,1548013510430,"{""wonTokkens"": ""0"", ""trial_type"": ""AAALevelOne"", ""robberTrackColLamDict"": ""[{\""color\"":\""purple\"",\""parameter\"":\""&#955; = 3.5667\""}]"", ""tokkenTrackDict"": ""[{\""position\"":1,\""time\"":5},{\""position\"":1,\""time\"":216},{\""position\"":-1,\""time\"":942},{\""position\"":-1,\""time\"":1179},{\""position\"":1,\""time\"":1981},{\""position\"":1,\""time\"":3148},{\""position\"":1,\""time\"":5290},{\""position\"":1,\""time\"":6329},{\""position\"":-1,\""time\"":7955},{\""position\"":-1,\""time\"":8310}]"", ""playerTrackDict"": ""[{\""position\"":1,\""time\"":3067},{\""position\"":0,\""time\"":3109},{\""position\"":1,\""time\"":5616},{\""position\"":0,\""time\"":5742},{\""position\"":1,\""time\"":8532}]"", ""internal_node_id"": ""0.0-52.0"", ""subjectId"": ""bzwcpqggvr"", ""earnedReward"": 27.5, ""playerCaughtTrackDict"": ""[{\""position\"":1,\""time\"":8817}]"", ""time_elapsed"": 847489, ""robberTrackArr"": ""[7,1098,1200,2225,2919,3042,3224,3226,3367,3574,3663,3725,3822,4260,4348,4439,4470,4850,5070,5266,5266,7068,7599,7815,8075,8488,8817]"", ""playerIsCaught"": ""true"", ""tokkeWonTrackDict"": ""[{\""position\"":1,\""time\"":3068},{\""position\"":1,\""time\"":5617}]"", ""trial_index"": 54}"
A1UKAS30R0MFI6:3JC6VJ2SACHWCYHCMVEE0BIWXAJA5W,55,1548013553110,"{""rt"": 41679, ""trial_type"": ""instructions"", ""view_history"": ""[{\""page_index\"":0,\""viewing_time\"":3211},{\""page_index\"":1,\""viewing_time\"":6646},{\""page_index\"":2,\""viewing_time\"":5090},{\""page_index\"":3,\""viewing_time\"":6542},{\""page_index\"":4,\""viewing_time\"":5333},{\""page_index\"":5,\""viewing_time\"":4578},{\""page_index\"":6,\""viewing_time\"":10278}]"", ""internal_node_id"": ""0.0-53.0"", ""subjectId"": ""bzwcpqggvr"", ""earnedReward"": 27.5, ""time_elapsed"": 890169, ""trial_index"": 55}"
A1UKAS30R0MFI6:3JC6VJ2SACHWCYHCMVEE0BIWXAJA5W,56,1548013574112,"{""rt"": 19980, ""trial_type"": ""survey-multi-choiceOriginal"", ""responses"": ""{\""Q0\"":\""Catch the robber(with the up arrow-key)\"",\""Q1\"":\""6\"",\""Q2\"":\""I caught the robber\"",\""Q3\"":\""No\"",\""Q4\"":\""None\""}"", ""internal_node_id"": ""0.0-54.0"", ""subjectId"": ""bzwcpqggvr"", ""label"": ""compr2"", ""earnedReward"": 27.5, ""time_elapsed"": 911171, ""trialType"": ""quest"", ""trial_index"": 56}"
A1UKAS30R0MFI6:3JC6VJ2SACHWCYHCMVEE0BIWXAJA5W,57,1548013576258,"{""rt"": 1143, ""trial_type"": ""text"", ""internal_node_id"": ""0.0-56.0"", ""subjectId"": ""bzwcpqggvr"", ""earnedReward"": 27.5, ""time_elapsed"": 913317, ""key_press"": 32, ""trial_index"": 57}"
A1UKAS30R0MFI6:3JC6VJ2SACHWCYHCMVEE0BIWXAJA5W,58,1548013584818,"{""trial_type"": ""AAALevelTwoB"", ""caughtRobberDict"": ""[{\""position\"":2,\""time\"":5050}]"", ""failedCatchAttemptDict"": ""[{\""position\"":2,\""time\"":3400}]"", ""robberTrackColLamDict"": ""[{\""color\"":\""yellow\"",\""parameter\"":\""&#955; = 2.2314\""}]"", ""robberTrackDict"": ""[{\""randomBinary\"":0.6943067365547737,\""robberProbability\"":0.2,\""active\"":false},{\""randomBinary\"":0.12409756454435761,\""robberProbability\"":0.2,\""active\"":true}]"", ""playerTrackDict"": ""[{\""position\"":2,\""time\"":3399},{\""position\"":2,\""time\"":5049}]"", ""internal_node_id"": ""0.0-57.0"", ""subjectId"": ""bzwcpqggvr"", ""earnedReward"": 27.5, ""time_elapsed"": 921876, ""playerCaughtRobber"": ""true"", ""tokkenTrackDict"": ""[{\""position\"":1,\""time\"":5},{\""position\"":1,\""time\"":963},{\""position\"":1,\""time\"":2312},{\""position\"":1,\""time\"":3448},{\""position\"":-1,\""time\"":4176},{\""position\"":-1,\""time\"":4873}]"", ""trial_index"": 58}"
A1UKAS30R0MFI6:3JC6VJ2SACHWCYHCMVEE0BIWXAJA5W,59,1548013598219,"{""wonTokkens"": ""0"", ""trial_type"": ""AAALevelTwoA"", ""robberTrackColLamDict"": ""[{\""color\"":\""azure\"",\""parameter\"":\""&#955; = 1.0536\""}]"", ""tokkenTrackDict"": ""[{\""position\"":1,\""time\"":10},{\""position\"":1,\""time\"":377},{\""position\"":-1,\""time\"":2562},{\""position\"":-1,\""time\"":3263},{\""position\"":1,\""time\"":4247},{\""position\"":1,\""time\"":4527},{\""position\"":1,\""time\"":5632},{\""position\"":1,\""time\"":6935},{\""position\"":1,\""time\"":8064},{\""position\"":1,\""time\"":9407},{\""position\"":-1,\""time\"":10475},{\""position\"":-1,\""time\"":10895}]"", ""playerTrackDict"": ""[]"", ""internal_node_id"": ""0.0-58.0"", ""subjectId"": ""bzwcpqggvr"", ""earnedReward"": 27.5, ""playerCaughtTrackDict"": ""[]"", ""time_elapsed"": 935278, ""robberTrackArr"": ""[11,1341,2906,4312,4970,5345,5929,5973,6428,6912,8029,8250,9954,10799,10809]"", ""playerIsCaught"": ""false"", ""tokkeWonTrackDict"": ""[]"", ""trial_index"": 59}"
A1UKAS30R0MFI6:3JC6VJ2SACHWCYHCMVEE0BIWXAJA5W,60,1548013614246,"{""trial_type"": ""AAALevelTwoB"", ""caughtRobberDict"": ""[]"", ""failedCatchAttemptDict"": ""[{\""position\"":2,\""time\"":1570},{\""position\"":2,\""time\"":5205},{\""position\"":2,\""time\"":10526},{\""position\"":2,\""time\"":13166}]"", ""robberTrackColLamDict"": ""[{\""color\"":\""azure\"",\""parameter\"":\""&#955; = 1.0536\""}]"", ""robberTrackDict"": ""[{\""randomBinary\"":0.989035823646051,\""robberProbability\"":0.1,\""active\"":false},{\""randomBinary\"":0.548109694418685,\""robberProbability\"":0.1,\""active\"":false},{\""randomBinary\"":0.3869246330229974,\""robberProbability\"":0.1,\""active\"":false},{\""randomBinary\"":0.6099026740984625,\""robberProbability\"":0.1,\""active\"":false}]"", ""playerTrackDict"": ""[{\""position\"":2,\""time\"":1569},{\""position\"":2,\""time\"":5204},{\""position\"":2,\""time\"":10525},{\""position\"":2,\""time\"":13165}]"", ""internal_node_id"": ""0.0-59.0"", ""subjectId"": ""bzwcpqggvr"", ""earnedReward"": 27.5, ""time_elapsed"": 951305, ""playerCaughtRobber"": ""false"", ""tokkenTrackDict"": ""[{\""position\"":1,\""time\"":6},{\""position\"":1,\""time\"":2755},{\""position\"":1,\""time\"":3656},{\""position\"":1,\""time\"":3666},{\""position\"":-1,\""time\"":4890},{\""position\"":-1,\""time\"":6218},{\""position\"":-1,\""time\"":7181},{\""position\"":-1,\""time\"":7187},{\""position\"":-1,\""time\"":10289},{\""position\"":-1,\""time\"":12947},{\""position\"":-1,\""time\"":13507},{\""position\"":-1,\""time\"":13524}]"", ""trial_index"": 60}"
A1UKAS30R0MFI6:3JC6VJ2SACHWCYHCMVEE0BIWXAJA5W,61,1548013624355,"{""trial_type"": ""AAALevelTwoB"", ""caughtRobberDict"": ""[{\""position\"":2,\""time\"":7604}]"", ""failedCatchAttemptDict"": ""[{\""position\"":2,\""time\"":1369},{\""position\"":2,\""time\"":2033},{\""position\"":2,\""time\"":4004}]"", ""robberTrackColLamDict"": ""[{\""color\"":\""purple\"",\""parameter\"":\""&#955; = 3.5667\""}]"", ""robberTrackDict"": ""[{\""randomBinary\"":0.5851606297861949,\""robberProbability\"":0.3,\""active\"":false},{\""randomBinary\"":0.9138706621046655,\""robberProbability\"":0.3,\""active\"":false},{\""randomBinary\"":0.5212295024267555,\""robberProbability\"":0.3,\""active\"":false},{\""randomBinary\"":0.1016078547671102,\""robberProbability\"":0.3,\""active\"":true}]"", ""playerTrackDict"": ""[{\""position\"":2,\""time\"":1368},{\""position\"":2,\""time\"":2032},{\""position\"":2,\""time\"":4004},{\""position\"":2,\""time\"":7603}]"", ""internal_node_id"": ""0.0-60.0"", ""subjectId"": ""bzwcpqggvr"", ""earnedReward"": 27.5, ""time_elapsed"": 961414, ""playerCaughtRobber"": ""true"", ""tokkenTrackDict"": ""[{\""position\"":-1,\""time\"":6},{\""position\"":-1,\""time\"":635},{\""position\"":-1,\""time\"":1617},{\""position\"":-1,\""time\"":3035},{\""position\"":1,\""time\"":3691},{\""position\"":1,\""time\"":3871},{\""position\"":-1,\""time\"":4381},{\""position\"":-1,\""time\"":5728},{\""position\"":-1,\""time\"":7194}]"", ""trial_index"": 61}"
A1UKAS30R0MFI6:3JC6VJ2SACHWCYHCMVEE0BIWXAJA5W,62,1548013641341,"{""trial_type"": ""AAALevelTwoB"", ""caughtRobberDict"": ""[]"", ""failedCatchAttemptDict"": ""[{\""position\"":2,\""time\"":692},{\""position\"":2,\""time\"":5887},{\""position\"":2,\""time\"":7135},{\""position\"":2,\""time\"":8230},{\""position\"":2,\""time\"":11101},{\""position\"":2,\""time\"":13135}]"", ""robberTrackColLamDict"": ""[{\""color\"":\""yellow\"",\""parameter\"":\""&#955; = 2.2314\""}]"", ""robberTrackDict"": ""[{\""randomBinary\"":0.3993592510556392,\""robberProbability\"":0.2,\""active\"":false},{\""randomBinary\"":0.8220571926299065,\""robberProbability\"":0.2,\""active\"":false},{\""randomBinary\"":0.6333772048445159,\""robberProbability\"":0.2,\""active\"":false},{\""randomBinary\"":0.6453720132712175,\""robberProbability\"":0.2,\""active\"":false},{\""randomBinary\"":0.6721630892734072,\""robberProbability\"":0.2,\""active\"":false},{\""randomBinary\"":0.4138715718118,\""robberProbability\"":0.2,\""active\"":false}]"", ""playerTrackDict"": ""[{\""position\"":2,\""time\"":691},{\""position\"":2,\""time\"":5886},{\""position\"":2,\""time\"":7135},{\""position\"":2,\""time\"":8228},{\""position\"":2,\""time\"":11099},{\""position\"":2,\""time\"":13134}]"", ""internal_node_id"": ""0.0-61.0"", ""subjectId"": ""bzwcpqggvr"", ""earnedReward"": 27.5, ""time_elapsed"": 978400, ""playerCaughtRobber"": ""false"", ""tokkenTrackDict"": ""[{\""position\"":1,\""time\"":4},{\""position\"":1,\""time\"":2462},{\""position\"":-1,\""time\"":5669},{\""position\"":-1,\""time\"":6929},{\""position\"":-1,\""time\"":7561},{\""position\"":-1,\""time\"":7822},{\""position\"":-1,\""time\"":8450},{\""position\"":-1,\""time\"":8902},{\""position\"":-1,\""time\"":10852},{\""position\"":-1,\""time\"":13219},{\""position\"":-1,\""time\"":13775},{\""position\"":-1,\""time\"":14481}]"", ""trial_index"": 62}"
A1UKAS30R0MFI6:3JC6VJ2SACHWCYHCMVEE0BIWXAJA5W,63,1548013651170,"{""trial_type"": ""AAALevelTwoB"", ""caughtRobberDict"": ""[]"", ""failedCatchAttemptDict"": ""[{\""position\"":2,\""time\"":1323},{\""position\"":2,\""time\"":4796}]"", ""robberTrackColLamDict"": ""[{\""color\"":\""purple\"",\""parameter\"":\""&#955; = 3.5667\""}]"", ""robberTrackDict"": ""[{\""randomBinary\"":0.4201338094200835,\""robberProbability\"":0.3,\""active\"":false},{\""randomBinary\"":0.5563688863783813,\""robberProbability\"":0.3,\""active\"":false}]"", ""playerTrackDict"": ""[{\""position\"":2,\""time\"":1323},{\""position\"":2,\""time\"":4795}]"", ""internal_node_id"": ""0.0-62.0"", ""subjectId"": ""bzwcpqggvr"", ""earnedReward"": 27.5, ""time_elapsed"": 988229, ""playerCaughtRobber"": ""false"", ""tokkenTrackDict"": ""[{\""position\"":1,\""time\"":6},{\""position\"":1,\""time\"":262},{\""position\"":1,\""time\"":1059},{\""position\"":1,\""time\"":1403},{\""position\"":1,\""time\"":1975},{\""position\"":1,\""time\"":2070},{\""position\"":1,\""time\"":3617},{\""position\"":1,\""time\"":3641},{\""position\"":-1,\""time\"":4207},{\""position\"":-1,\""time\"":5245},{\""position\"":1,\""time\"":7103},{\""position\"":1,\""time\"":7325}]"", ""trial_index"": 63}"
A1UKAS30R0MFI6:3JC6VJ2SACHWCYHCMVEE0BIWXAJA5W,64,1548013651300,"{""trial_type"": ""AAALevelTwoB"", ""caughtRobberDict"": ""[{\""position\"":2,\""time\"":7456}]"", ""failedCatchAttemptDict"": ""[{\""position\"":2,\""time\"":1323},{\""position\"":2,\""time\"":4796}]"", ""robberTrackColLamDict"": ""[{\""color\"":\""purple\"",\""parameter\"":\""&#955; = 3.5667\""}]"", ""robberTrackDict"": ""[{\""randomBinary\"":0.4201338094200835,\""robberProbability\"":0.3,\""active\"":false},{\""randomBinary\"":0.5563688863783813,\""robberProbability\"":0.3,\""active\"":false},{\""randomBinary\"":0.06620346990726778,\""robberProbability\"":0.3,\""active\"":true}]"", ""playerTrackDict"": ""[{\""position\"":2,\""time\"":1323},{\""position\"":2,\""time\"":4795},{\""position\"":2,\""time\"":7455}]"", ""internal_node_id"": ""0.0-62.0"", ""subjectId"": ""bzwcpqggvr"", ""earnedReward"": 27.5, ""time_elapsed"": 988359, ""playerCaughtRobber"": ""true"", ""tokkenTrackDict"": ""[{\""position\"":1,\""time\"":6},{\""position\"":1,\""time\"":262},{\""position\"":1,\""time\"":1059},{\""position\"":1,\""time\"":1403},{\""position\"":1,\""time\"":1975},{\""position\"":1,\""time\"":2070},{\""position\"":1,\""time\"":3617},{\""position\"":1,\""time\"":3641},{\""position\"":-1,\""time\"":4207},{\""position\"":-1,\""time\"":5245},{\""position\"":1,\""time\"":7103},{\""position\"":1,\""time\"":7325}]"", ""trial_index"": 63}"
A1UKAS30R0MFI6:3JC6VJ2SACHWCYHCMVEE0BIWXAJA5W,65,1548013660780,"{""trial_type"": ""AAALevelTwoB"", ""caughtRobberDict"": ""[]"", ""failedCatchAttemptDict"": ""[{\""position\"":2,\""time\"":889},{\""position\"":2,\""time\"":2771},{\""position\"":2,\""time\"":5376},{\""position\"":2,\""time\"":6435}]"", ""robberTrackColLamDict"": ""[{\""color\"":\""azure\"",\""parameter\"":\""&#955; = 1.0536\""}]"", ""robberTrackDict"": ""[{\""randomBinary\"":0.7859557229439886,\""robberProbability\"":0.1,\""active\"":false},{\""randomBinary\"":0.8103196364838969,\""robberProbability\"":0.1,\""active\"":false},{\""randomBinary\"":0.668074092485051,\""robberProbability\"":0.1,\""active\"":false},{\""randomBinary\"":0.6821921317051138,\""robberProbability\"":0.1,\""active\"":false}]"", ""playerTrackDict"": ""[{\""position\"":2,\""time\"":888},{\""position\"":2,\""time\"":2770},{\""position\"":2,\""time\"":5376},{\""position\"":2,\""time\"":6434}]"", ""internal_node_id"": ""0.0-64.0"", ""subjectId"": ""bzwcpqggvr"", ""earnedReward"": 27.5, ""time_elapsed"": 997839, ""playerCaughtRobber"": ""false"", ""tokkenTrackDict"": ""[{\""position\"":1,\""time\"":3},{\""position\"":1,\""time\"":329},{\""position\"":1,\""time\"":971},{\""position\"":1,\""time\"":1298},{\""position\"":1,\""time\"":2058},{\""position\"":1,\""time\"":2236},{\""position\"":1,\""time\"":3086},{\""position\"":1,\""time\"":3282},{\""position\"":-1,\""time\"":5069},{\""position\"":-1,\""time\"":5613},{\""position\"":1,\""time\"":6510},{\""position\"":1,\""time\"":6976}]"", ""trial_index"": 65}"
A1UKAS30R0MFI6:3JC6VJ2SACHWCYHCMVEE0BIWXAJA5W,66,1548013663990,"{""rt"": 2208, ""trial_type"": ""text"", ""internal_node_id"": ""0.0-65.0"", ""subjectId"": ""bzwcpqggvr"", ""earnedReward"": 27.5, ""time_elapsed"": 1001049, ""key_press"": 32, ""trial_index"": 66}"
A1UKAS30R0MFI6:3JC6VJ2SACHWCYHCMVEE0BIWXAJA5W,67,1548013667902,"{""wonTokkens"": ""0"", ""trial_type"": ""AAALevelTwoB"", ""robberTrackColLamDict"": ""[{\""color\"":\""purple\"",\""parameter\"":\""&#955; = 3.5667\""}]"", ""tokkenTrackDict"": ""[{\""position\"":1,\""time\"":7},{\""position\"":1,\""time\"":2312},{\""position\"":1,\""time\"":3435},{\""position\"":1,\""time\"":4508},{\""position\"":1,\""time\"":6138},{\""position\"":1,\""time\"":7349},{\""position\"":1,\""time\"":8675},{\""position\"":1,\""time\"":8849},{\""position\"":1,\""time\"":10754},{\""position\"":1,\""time\"":11716},{\""position\"":1,\""time\"":12796},{\""position\"":1,\""time\"":14226}]"", ""playerTrackDict"": ""[]"", ""internal_node_id"": ""0.0-66.0"", ""subjectId"": ""bzwcpqggvr"", ""earnedReward"": 27.5, ""playerCaughtTrackDict"": ""[]"", ""time_elapsed"": 1004961, ""robberTrackArr"": ""[9,608,859,1083,1211,1441,1621,1822,2033,2217,2228,2381,3238,4215,4302,4356,4382,4780,5082,5221,5523,5757,6247,6657,6781,7039,7282,7593,7595,7623,7659,8020,8398,9271,9313,9405,9631,9662,9750,9780,10256,10278,10369,10465,10545,11431,11850,12662,12700,12806,12858,13204,13453,13619]"", ""playerIsCaught"": ""false"", ""tokkeWonTrackDict"": ""[]"", ""trial_index"": 67}"
A1UKAS30R0MFI6:3JC6VJ2SACHWCYHCMVEE0BIWXAJA5W,68,1548013673499,"{""trial_type"": ""AAALevelTwoB"", ""caughtRobberDict"": ""[{\""position\"":2,\""time\"":7004}]"", ""failedCatchAttemptDict"": ""[{\""position\"":2,\""time\"":1644},{\""position\"":2,\""time\"":4485},{\""position\"":2,\""time\"":5512},{\""position\"":2,\""time\"":6276}]"", ""robberTrackColLamDict"": ""[{\""color\"":\""purple\"",\""parameter\"":\""&#955; = 3.5667\""}]"", ""robberTrackDict"": ""[{\""randomBinary\"":0.8703873862128284,\""robberProbability\"":0.3,\""active\"":false},{\""randomBinary\"":0.9733964464929865,\""robberProbability\"":0.3,\""active\"":false},{\""randomBinary\"":0.6376703290004611,\""robberProbability\"":0.3,\""active\"":false},{\""randomBinary\"":0.65068402325498,\""robberProbability\"":0.3,\""active\"":false},{\""randomBinary\"":0.1131976960894181,\""robberProbability\"":0.3,\""active\"":true}]"", ""playerTrackDict"": ""[{\""position\"":2,\""time\"":1643},{\""position\"":2,\""time\"":4485},{\""position\"":2,\""time\"":5511},{\""position\"":2,\""time\"":6274},{\""position\"":2,\""time\"":7003}]"", ""internal_node_id"": ""0.0-67.0"", ""subjectId"": ""bzwcpqggvr"", ""earnedReward"": 27.5, ""time_elapsed"": 1010558, ""playerCaughtRobber"": ""true"", ""tokkenTrackDict"": ""[{\""position\"":1,\""time\"":4},{\""position\"":1,\""time\"":987},{\""position\"":-1,\""time\"":3793},{\""position\"":-1,\""time\"":3931},{\""position\"":1,\""time\"":4585},{\""position\"":1,\""time\"":4625},{\""position\"":1,\""time\"":6471}]"", ""trial_index"": 68}"
A1UKAS30R0MFI6:3JC6VJ2SACHWCYHCMVEE0BIWXAJA5W,69,1548013683027,"{""trial_type"": ""AAALevelTwoB"", ""caughtRobberDict"": ""[]"", ""failedCatchAttemptDict"": ""[]"", ""robberTrackColLamDict"": ""[{\""color\"":\""azure\"",\""parameter\"":\""&#955; = 1.0536\""}]"", ""robberTrackDict"": ""[{\""randomBinary\"":0.21230087394071862,\""robberProbability\"":0.1,\""active\"":false}]"", ""playerTrackDict"": ""[{\""position\"":2,\""time\"":575}]"", ""internal_node_id"": ""0.0-68.0"", ""subjectId"": ""bzwcpqggvr"", ""earnedReward"": 27.5, ""time_elapsed"": 1020086, ""playerCaughtRobber"": ""false"", ""tokkenTrackDict"": ""[{\""position\"":-1,\""time\"":8},{\""position\"":-1,\""time\"":1106},{\""position\"":-1,\""time\"":1691},{\""position\"":-1,\""time\"":2048},{\""position\"":1,\""time\"":3043},{\""position\"":1,\""time\"":3119},{\""position\"":1,\""time\"":4794},{\""position\"":1,\""time\"":6725},{\""position\"":1,\""time\"":9277},{\""position\"":1,\""time\"":9628},{\""position\"":-1,\""time\"":11626},{\""position\"":-1,\""time\"":12622}]"", ""trial_index"": 69}"
A1UKAS30R0MFI6:3JC6VJ2SACHWCYHCMVEE0BIWXAJA5W,70,1548013686531,"{""trial_type"": ""AAALevelTwoB"", ""caughtRobberDict"": ""[]"", ""failedCatchAttemptDict"": ""[{\""position\"":2,\""time\"":520},{\""position\"":2,\""time\"":1588},{\""position\"":2,\""time\"":2994},{\""position\"":2,\""time\"":3905},{\""position\"":2,\""time\"":4698},{\""position\"":2,\""time\"":5471}]"", ""robberTrackColLamDict"": ""[{\""color\"":\""yellow\"",\""parameter\"":\""&#955; = 2.2314\""}]"", ""robberTrackDict"": ""[{\""randomBinary\"":0.213675586656485,\""robberProbability\"":0.2,\""active\"":false},{\""randomBinary\"":0.949339259127449,\""robberProbability\"":0.2,\""active\"":false},{\""randomBinary\"":0.3445279139669808,\""robberProbability\"":0.2,\""active\"":false},{\""randomBinary\"":0.7061761766430923,\""robberProbability\"":0.2,\""active\"":false},{\""randomBinary\"":0.3621540890369075,\""robberProbability\"":0.2,\""active\"":false},{\""randomBinary\"":0.935445550379878,\""robberProbability\"":0.2,\""active\"":false}]"", ""playerTrackDict"": ""[{\""position\"":2,\""time\"":519},{\""position\"":2,\""time\"":1587},{\""position\"":2,\""time\"":2993},{\""position\"":2,\""time\"":3904},{\""position\"":2,\""time\"":4697},{\""position\"":2,\""time\"":5470}]"", ""internal_node_id"": ""0.0-69.0"", ""subjectId"": ""bzwcpqggvr"", ""earnedReward"": 27.5, ""time_elapsed"": 1023590, ""playerCaughtRobber"": ""false"", ""tokkenTrackDict"": ""[{\""position\"":-1,\""time\"":3},{\""position\"":-1,\""time\"":1785},{\""position\"":1,\""time\"":2751},{\""position\"":1,\""time\"":3146},{\""position\"":-1,\""time\"":3927},{\""position\"":-1,\""time\"":4165},{\""position\"":-1,\""time\"":5109},{\""position\"":-1,\""time\"":5221},{\""position\"":1,\""time\"":6846},{\""position\"":1,\""time\"":6996},{\""position\"":-1,\""time\"":8708},{\""position\"":-1,\""time\"":10529}]"", ""trial_index"": 70}"
A1UKAS30R0MFI6:3JC6VJ2SACHWCYHCMVEE0BIWXAJA5W,71,1548013695672,"{""trial_type"": ""AAALevelTwoA"", ""caughtRobberDict"": ""[{\""position\"":2,\""time\"":10142}]"", ""failedCatchAttemptDict"": ""[{\""position\"":2,\""time\"":717},{\""position\"":2,\""time\"":4003},{\""position\"":2,\""time\"":4775},{\""position\"":2,\""time\"":6800},{\""position\"":2,\""time\"":8822}]"", ""robberTrackColLamDict"": ""[{\""color\"":\""yellow\"",\""parameter\"":\""&#955; = 2.2314\""}]"", ""robberTrackDict"": ""[{\""randomBinary\"":0.2081194809028879,\""robberProbability\"":0.2,\""active\"":false},{\""randomBinary\"":0.46738878153940067,\""robberProbability\"":0.2,\""active\"":false},{\""randomBinary\"":0.4469394555328434,\""robberProbability\"":0.2,\""active\"":false},{\""randomBinary\"":0.22455051387160374,\""robberProbability\"":0.2,\""active\"":false},{\""randomBinary\"":0.4832989204149123,\""robberProbability\"":0.2,\""active\"":false},{\""randomBinary\"":0.06978789861183365,\""robberProbability\"":0.2,\""active\"":true}]"", ""playerTrackDict"": ""[{\""position\"":2,\""time\"":717},{\""position\"":2,\""time\"":4002},{\""position\"":2,\""time\"":4774},{\""position\"":2,\""time\"":6799},{\""position\"":2,\""time\"":8821},{\""position\"":2,\""time\"":10141}]"", ""internal_node_id"": ""0.0-70.0"", ""subjectId"": ""bzwcpqggvr"", ""earnedReward"": 27.5, ""time_elapsed"": 1032731, ""playerCaughtRobber"": ""true"", ""tokkenTrackDict"": ""[{\""position\"":1,\""time\"":18},{\""position\"":1,\""time\"":708},{\""position\"":1,\""time\"":1254},{\""position\"":1,\""time\"":2997},{\""position\"":-1,\""time\"":3657},{\""position\"":-1,\""time\"":4459},{\""position\"":-1,\""time\"":6469},{\""position\"":-1,\""time\"":7514},{\""position\"":-1,\""time\"":8333},{\""position\"":-1,\""time\"":9078},{\""position\"":1,\""time\"":9877}]"", ""trial_index"": 71}"
A1UKAS30R0MFI6:3JC6VJ2SACHWCYHCMVEE0BIWXAJA5W,72,1548013700789,"{""wonTokkens"": ""0"", ""trial_type"": ""AAALevelTwoB"", ""robberTrackColLamDict"": ""[{\""color\"":\""azure\"",\""parameter\"":\""&#955; = 1.0536\""}]"", ""tokkenTrackDict"": ""[{\""position\"":-1,\""time\"":8},{\""position\"":-1,\""time\"":67},{\""position\"":-1,\""time\"":1812},{\""position\"":-1,\""time\"":1999},{\""position\"":-1,\""time\"":3071},{\""position\"":-1,\""time\"":3536},{\""position\"":-1,\""time\"":5406},{\""position\"":-1,\""time\"":5874},{\""position\"":1,\""time\"":7294},{\""position\"":1,\""time\"":9160},{\""position\"":1,\""time\"":10473},{\""position\"":1,\""time\"":11755}]"", ""playerTrackDict"": ""[]"", ""internal_node_id"": ""0.0-71.0"", ""subjectId"": ""bzwcpqggvr"", ""earnedReward"": 27.5, ""playerCaughtTrackDict"": ""[]"", ""time_elapsed"": 1037848, ""robberTrackArr"": ""[8,669,3665,3837,4804,5050,5548,6207,6279,6293,6747,8153,10042]"", ""playerIsCaught"": ""false"", ""tokkeWonTrackDict"": ""[]"", ""trial_index"": 72}"
A1UKAS30R0MFI6:3JC6VJ2SACHWCYHCMVEE0BIWXAJA5W,73,1548013714212,"{""trial_type"": ""AAALevelTwoB"", ""caughtRobberDict"": ""[]"", ""failedCatchAttemptDict"": ""[]"", ""robberTrackColLamDict"": ""[{\""color\"":\""purple\"",\""parameter\"":\""&#955; = 3.5667\""}]"", ""robberTrackDict"": ""[{\""randomBinary\"":0.5111926505483335,\""robberProbability\"":0.3,\""active\"":false}]"", ""playerTrackDict"": ""[{\""position\"":2,\""time\"":1417}]"", ""internal_node_id"": ""0.0-72.0"", ""subjectId"": ""bzwcpqggvr"", ""earnedReward"": 27.5, ""time_elapsed"": 1051271, ""playerCaughtRobber"": ""false"", ""tokkenTrackDict"": ""[{\""position\"":-1,\""time\"":7},{\""position\"":-1,\""time\"":89},{\""position\"":1,\""time\"":2370},{\""position\"":1,\""time\"":2685},{\""position\"":-1,\""time\"":3541},{\""position\"":-1,\""time\"":3788},{\""position\"":-1,\""time\"":4372},{\""position\"":-1,\""time\"":4919},{\""position\"":-1,\""time\"":7951},{\""position\"":-1,\""time\"":9974},{\""position\"":1,\""time\"":10671},{\""position\"":1,\""time\"":10918}]"", ""trial_index"": 73}"
A1UKAS30R0MFI6:3JC6VJ2SACHWCYHCMVEE0BIWXAJA5W,74,1548013730601,"{""wonTokkens"": ""0"", ""trial_type"": ""AAALevelTwoA"", ""robberTrackColLamDict"": ""[{\""color\"":\""yellow\"",\""parameter\"":\""&#955; = 2.2314\""}]"", ""tokkenTrackDict"": ""[{\""position\"":-1,\""time\"":7},{\""position\"":-1,\""time\"":983},{\""position\"":-1,\""time\"":2427},{\""position\"":-1,\""time\"":2688},{\""position\"":1,\""time\"":3839},{\""position\"":1,\""time\"":4490},{\""position\"":1,\""time\"":5638}]"", ""playerTrackDict"": ""[{\""position\"":1,\""time\"":5102},{\""position\"":0,\""time\"":5177},{\""position\"":1,\""time\"":6017}]"", ""internal_node_id"": ""0.0-73.0"", ""subjectId"": ""bzwcpqggvr"", ""earnedReward"": 27.5, ""playerCaughtTrackDict"": ""[{\""position\"":1,\""time\"":6114}]"", ""time_elapsed"": 1067660, ""robberTrackArr"": ""[10,28,1037,2408,2921,2987,3179,4356,4640,5079,5576,5906,5959,6114]"", ""playerIsCaught"": ""true"", ""tokkeWonTrackDict"": ""[{\""position\"":1,\""time\"":6017}]"", ""trial_index"": 74}"
A1UKAS30R0MFI6:3JC6VJ2SACHWCYHCMVEE0BIWXAJA5W,75,1548013735714,"{""rt"": 4111, ""trial_type"": ""instructions"", ""view_history"": ""[{\""page_index\"":0,\""viewing_time\"":4111}]"", ""internal_node_id"": ""0.0-74.0"", ""subjectId"": ""bzwcpqggvr"", ""earnedReward"": 27.5, ""time_elapsed"": 1072773, ""trial_index"": 75}"
A1UKAS30R0MFI6:3JC6VJ2SACHWCYHCMVEE0BIWXAJA5W,76,1548013742469,"{""rt"": 5740, ""trial_type"": ""similarity"", ""stimulus"": ""[\""/static/images/yellowFrame.jpeg\"",null]"", ""internal_node_id"": ""0.0-75.0"", ""subjectId"": ""bzwcpqggvr"", ""earnedReward"": 27.5, ""time_elapsed"": 1079528, ""sim_score"": 61, ""trial_index"": 76}"
A1UKAS30R0MFI6:3JC6VJ2SACHWCYHCMVEE0BIWXAJA5W,77,1548013747180,"{""rt"": 3694, ""trial_type"": ""similarity"", ""stimulus"": ""[\""/static/images/purpleFrame.jpeg\"",null]"", ""internal_node_id"": ""0.0-76.0"", ""subjectId"": ""bzwcpqggvr"", ""earnedReward"": 27.5, ""time_elapsed"": 1084239, ""sim_score"": 27, ""trial_index"": 77}"
A1UKAS30R0MFI6:3JC6VJ2SACHWCYHCMVEE0BIWXAJA5W,78,1548013750846,"{""rt"": 2652, ""trial_type"": ""similarity"", ""stimulus"": ""[\""/static/images/azureFrame.jpeg\"",null]"", ""internal_node_id"": ""0.0-77.0"", ""subjectId"": ""bzwcpqggvr"", ""earnedReward"": 27.5, ""time_elapsed"": 1087905, ""sim_score"": 78, ""trial_index"": 78}"
A1UKAS30R0MFI6:3JC6VJ2SACHWCYHCMVEE0BIWXAJA5W,79,1548013753951,"{""rt"": 2104, ""trial_type"": ""text"", ""internal_node_id"": ""0.0-78.0"", ""subjectId"": ""bzwcpqggvr"", ""label"": ""intruct"", ""earnedReward"": 27.5, ""time_elapsed"": 1091010, ""key_press"": 32, ""trialType"": ""quest"", ""trial_index"": 79}"
A1UKAS30R0MFI6:3JC6VJ2SACHWCYHCMVEE0BIWXAJA5W,80,1548013801827,"{""rt"": 46776, ""trial_type"": ""survey-multi-choiceOriginal"", ""responses"": ""{\""Q0\"":\""Some of the time\"",\""Q1\"":\""A little of the time\"",\""Q2\"":\""Some of the time\"",\""Q3\"":\""Good part of the time\"",\""Q4\"":\""Some of the time\"",\""Q5\"":\""Good part of the time\"",\""Q6\"":\""A little of the time\"",\""Q7\"":\""A little of the time\"",\""Q8\"":\""Some of the time\"",\""Q9\"":\""Some of the time\"",\""Q10\"":\""Some of the time\"",\""Q11\"":\""A little of the time\"",\""Q12\"":\""Good part of the time\"",\""Q13\"":\""Some of the time\"",\""Q14\"":\""Good part of the time\"",\""Q15\"":\""A little of the time\"",\""Q16\"":\""Some of the time\"",\""Q17\"":\""Some of the time\"",\""Q18\"":\""Some of the time\"",\""Q19\"":\""A little of the time\""}"", ""internal_node_id"": ""0.0-79.0"", ""subjectId"": ""bzwcpqggvr"", ""label"": ""depress"", ""earnedReward"": 27.5, ""time_elapsed"": 1138886, ""trialType"": ""quest"", ""trial_index"": 80}"
A1UKAS30R0MFI6:3JC6VJ2SACHWCYHCMVEE0BIWXAJA5W,81,1548013876261,"{""rt"": 73159, ""trial_type"": ""survey-multi-choiceOriginal"", ""responses"": ""{\""Q0\"":\""None\"",\""Q1\"":\""Occasionally (1&#8212;33%)\"",\""Q2\"":\""None\"",\""Q3\"":\""Occasionally (1&#8212;33%)\"",\""Q4\"":\""None\"",\""Q5\"":\""Never (0%)\"",\""Q6\"":\""None\"",\""Q7\"":\""Never (0%)\"",\""Q8\"":\""Mild\"",\""Q9\"":\""Occasionally (1&#8212;33%)\"",\""Q10\"":\""Moderate\"",\""Q11\"":\""Often (33&#8212;67%)\"",\""Q12\"":\""None\"",\""Q13\"":\""Never (0%)\"",\""Q14\"":\""Mild\"",\""Q15\"":\""Occasionally (1&#8212;33%)\"",\""Q16\"":\""None\"",\""Q17\"":\""Never (0%)\"",\""Q18\"":\""Mild\"",\""Q19\"":\""Occasionally (1&#8212;33%)\"",\""Q20\"":\""Mild\"",\""Q21\"":\""Occasionally (1&#8212;33%)\"",\""Q22\"":\""Mild\"",\""Q23\"":\""Occasionally (1&#8212;33%)\"",\""Q24\"":\""None\"",\""Q25\"":\""Never (0%)\"",\""Q26\"":\""None\"",\""Q27\"":\""Never (0%)\"",\""Q28\"":\""Mild\"",\""Q29\"":\""Occasionally (1&#8212;33%)\"",\""Q30\"":\""Mild\"",\""Q31\"":\""Occasionally (1&#8212;33%)\"",\""Q32\"":\""Moderate\"",\""Q33\"":\""Never (0%)\"",\""Q34\"":\""Mild\"",\""Q35\"":\""Occasionally (1&#8212;33%)\"",\""Q36\"":\""Mild\"",\""Q37\"":\""Often (33&#8212;67%)\"",\""Q38\"":\""Mild\"",\""Q39\"":\""Never (0%)\"",\""Q40\"":\""Mild\"",\""Q41\"":\""Occasionally (1&#8212;33%)\"",\""Q42\"":\""None\"",\""Q43\"":\""Never (0%)\"",\""Q44\"":\""Mild\"",\""Q45\"":\""Occasionally (1&#8212;33%)\"",\""Q46\"":\""None\"",\""Q47\"":\""Never (0%)\""}"", ""internal_node_id"": ""0.0-80.0"", ""subjectId"": ""bzwcpqggvr"", ""label"": ""social"", ""earnedReward"": 27.5, ""time_elapsed"": 1213320, ""trialType"": ""quest"", ""trial_index"": 81}"
A1UKAS30R0MFI6:3JC6VJ2SACHWCYHCMVEE0BIWXAJA5W,82,1548013888076,"{""rt"": 10795, ""trial_type"": ""survey-multi-choiceOriginal"", ""responses"": ""{\""Q0\"":\""Just a little\"",\""Q1\"":\""Pretty much/pretty often\"",\""Q2\"":\""Just a little\"",\""Q3\"":\""Just a little\"",\""Q4\"":\""Pretty much/pretty often\""}"", ""internal_node_id"": ""0.0-81.0"", ""subjectId"": ""bzwcpqggvr"", ""label"": ""daringness-CADS"", ""earnedReward"": 27.5, ""time_elapsed"": 1225135, ""trialType"": ""quest"", ""trial_index"": 82}"
A1UKAS30R0MFI6:3JC6VJ2SACHWCYHCMVEE0BIWXAJA5W,83,1548013985194,"{""rt"": 96023, ""trial_type"": ""survey-multi-choiceOriginal"", ""responses"": ""{\""Q0\"":\""No\"",\""Q1\"":\""No\"",\""Q2\"":\""No\"",\""Q3\"":\""No\"",\""Q4\"":\""No\"",\""Q5\"":\""No\"",\""Q6\"":\""No\"",\""Q7\"":\""No\"",\""Q8\"":\""No\"",\""Q9\"":\""No\"",\""Q10\"":\""No\"",\""Q11\"":\""No\"",\""Q12\"":\""No\"",\""Q13\"":\""No\"",\""Q14\"":\""No\"",\""Q15\"":\""No\"",\""Q16\"":\""No\"",\""Q17\"":\""Yes\"",\""Q18\"":\""Yes\"",\""Q19\"":\""No\"",\""Q20\"":\""No\"",\""Q21\"":\""Yes\"",\""Q22\"":\""No\"",\""Q23\"":\""Yes\"",\""Q24\"":\""No\"",\""Q25\"":\""No\"",\""Q26\"":\""No\"",\""Q27\"":\""Yes\"",\""Q28\"":\""Yes\"",\""Q29\"":\""Yes\"",\""Q30\"":\""Yes\"",\""Q31\"":\""No\"",\""Q32\"":\""Yes\"",\""Q33\"":\""Yes\"",\""Q34\"":\""No\"",\""Q35\"":\""Yes\"",\""Q36\"":\""Yes\"",\""Q37\"":\""No\"",\""Q38\"":\""No\"",\""Q39\"":\""No\"",\""Q40\"":\""No\"",\""Q41\"":\""No\"",\""Q42\"":\""No\""}"", ""internal_node_id"": ""0.0-82.0"", ""subjectId"": ""bzwcpqggvr"", ""label"": ""schizo"", ""earnedReward"": 27.5, ""time_elapsed"": 1322253, ""trialType"": ""quest"", ""trial_index"": 83}"
A1UKAS30R0MFI6:3JC6VJ2SACHWCYHCMVEE0BIWXAJA5W,84,1548014008327,"{""rt"": 22094, ""trial_type"": ""survey-multi-choiceOriginal"", ""responses"": ""{\""Q0\"":\""Two to three times a week\"",\""Q1\"":\""1 or 2\"",\""Q2\"":\""Less than monthly\"",\""Q3\"":\""Never\"",\""Q4\"":\""Never\"",\""Q5\"":\""Never\"",\""Q6\"":\""Never\"",\""Q7\"":\""Never\"",\""Q8\"":\""No\"",\""Q9\"":\""No\""}"", ""internal_node_id"": ""0.0-83.0"", ""subjectId"": ""bzwcpqggvr"", ""label"": ""alcohol"", ""earnedReward"": 27.5, ""time_elapsed"": 1345386, ""trialType"": ""quest"", ""trial_index"": 84}"
A1UKAS30R0MFI6:3JC6VJ2SACHWCYHCMVEE0BIWXAJA5W,85,1548014059160,"{""rt"": 49726, ""trial_type"": ""survey-multi-choiceOriginal"", ""responses"": ""{\""Q0\"":\""Agree a lot\"",\""Q1\"":\""Agree slightly\"",\""Q2\"":\""Agree a lot\"",\""Q3\"":\""Agree a lot\"",\""Q4\"":\""Do not agree at all\"",\""Q5\"":\""Agree slightly\"",\""Q6\"":\""Agree completely\"",\""Q7\"":\""Agree completely\"",\""Q8\"":\""Agree completely\"",\""Q9\"":\""Agree completely\"",\""Q10\"":\""Do not agree at all\"",\""Q11\"":\""Agree completely\"",\""Q12\"":\""Agree completely\"",\""Q13\"":\""Do not agree at all\"",\""Q14\"":\""Agree completely\"",\""Q15\"":\""Agree slightly\"",\""Q16\"":\""Agree a lot\"",\""Q17\"":\""Do not agree at all\"",\""Q18\"":\""Agree slightly\"",\""Q19\"":\""Agree completely\"",\""Q20\"":\""Agree slightly\"",\""Q21\"":\""Agree a lot\"",\""Q22\"":\""Do not agree at all\"",\""Q23\"":\""Agree a lot\"",\""Q24\"":\""Agree slightly\"",\""Q25\"":\""Do not agree at all\"",\""Q26\"":\""Agree a lot\"",\""Q27\"":\""Agree slightly\"",\""Q28\"":\""Agree a lot\"",\""Q29\"":\""Agree completely\""}"", ""internal_node_id"": ""0.0-84.0"", ""subjectId"": ""bzwcpqggvr"", ""label"": ""bis"", ""earnedReward"": 27.5, ""time_elapsed"": 1396219, ""trialType"": ""quest"", ""trial_index"": 85}"
A1UKAS30R0MFI6:3JC6VJ2SACHWCYHCMVEE0BIWXAJA5W,86,1548014087886,"{""rt"": 27656, ""trial_type"": ""survey-multi-choiceOriginal"", ""responses"": ""{\""Q0\"":\""Often\"",\""Q1\"":\""Sometimes\"",\""Q2\"":\""Sometimes\"",\""Q3\"":\""Often\"",\""Q4\"":\""Almost never\"",\""Q5\"":\""Sometimes\"",\""Q6\"":\""Sometimes\"",\""Q7\"":\""Sometimes\"",\""Q8\"":\""Often\"",\""Q9\"":\""Often\"",\""Q10\"":\""Sometimes\"",\""Q11\"":\""Sometimes\"",\""Q12\"":\""Often\"",\""Q13\"":\""Often\"",\""Q14\"":\""Almost never\"",\""Q15\"":\""Sometimes\"",\""Q16\"":\""Often\"",\""Q17\"":\""Almost never\"",\""Q18\"":\""Often\"",\""Q19\"":\""Often\""}"", ""internal_node_id"": ""0.0-85.0"", ""subjectId"": ""bzwcpqggvr"", ""label"": ""anxiety-Y2"", ""earnedReward"": 27.5, ""time_elapsed"": 1424945, ""trialType"": ""quest"", ""trial_index"": 86}"
A1UKAS30R0MFI6:3JC6VJ2SACHWCYHCMVEE0BIWXAJA5W,87,1548014110967,"{""rt"": 21974, ""trial_type"": ""survey-multi-choiceOriginal"", ""responses"": ""{\""Q0\"":\""Not at all characteristic\"",\""Q1\"":\""Somewhat characteristic\"",\""Q2\"":\""Somewhat characteristic\"",\""Q3\"":\""Very characteristic\"",\""Q4\"":\""Somewhat characteristic\"",\""Q5\"":\""Slightly characteristic\"",\""Q6\"":\""Very characteristic\"",\""Q7\"":\""Somewhat characteristic\"",\""Q8\"":\""Very characteristic\"",\""Q9\"":\""Somewhat characteristic\"",\""Q10\"":\""Slightly characteristic\"",\""Q11\"":\""Very characteristic\"",\""Q12\"":\""Very characteristic\"",\""Q13\"":\""Somewhat characteristic\"",\""Q14\"":\""Very characteristic\"",\""Q15\"":\""Somewhat characteristic\"",\""Q16\"":\""Very characteristic\"",\""Q17\"":\""Slightly characteristic\""}"", ""internal_node_id"": ""0.0-86.0"", ""subjectId"": ""bzwcpqggvr"", ""label"": ""apathy"", ""earnedReward"": 27.5, ""time_elapsed"": 1448025, ""trialType"": ""quest"", ""trial_index"": 87}"
A1UKAS30R0MFI6:3JC6VJ2SACHWCYHCMVEE0BIWXAJA5W,88,1548014139943,"{""rt"": 27899, ""trial_type"": ""survey-multi-choiceOriginal"", ""responses"": ""{\""Q0\"":\""Very much so\"",\""Q1\"":\""Moderately so\"",\""Q2\"":\""Moderately so\"",\""Q3\"":\""Very much so\"",\""Q4\"":\""Moderately so\"",\""Q5\"":\""Not at all\"",\""Q6\"":\""Moderately so\"",\""Q7\"":\""Moderately so\"",\""Q8\"":\""Not at all\"",\""Q9\"":\""Moderately so\"",\""Q10\"":\""Very much so\"",\""Q11\"":\""Somewhat\"",\""Q12\"":\""Somewhat\"",\""Q13\"":\""Not at all\"",\""Q14\"":\""Very much so\"",\""Q15\"":\""Very much so\"",\""Q16\"":\""Not at all\"",\""Q17\"":\""Not at all\"",\""Q18\"":\""Very much so\"",\""Q19\"":\""Moderately so\""}"", ""internal_node_id"": ""0.0-87.0"", ""subjectId"": ""bzwcpqggvr"", ""label"": ""anxiety-Y1"", ""earnedReward"": 27.5, ""time_elapsed"": 1477002, ""trialType"": ""quest"", ""trial_index"": 88}"
A1UKAS30R0MFI6:3JC6VJ2SACHWCYHCMVEE0BIWXAJA5W,89,1548014193254,"{""rt"": 52156, ""trial_type"": ""survey-multi-choiceOriginal"", ""responses"": ""{\""Q0\"":\""Sometimes\"",\""Q1\"":\""Sometimes\"",\""Q2\"":\""Often\"",\""Q3\"":\""Rarely\"",\""Q4\"":\""Sometimes\"",\""Q5\"":\""Usually\"",\""Q6\"":\""Often\"",\""Q7\"":\""Often\"",\""Q8\"":\""Never\"",\""Q9\"":\""Never\"",\""Q10\"":\""Never\"",\""Q11\"":\""Often\"",\""Q12\"":\""Rarely\"",\""Q13\"":\""Sometimes\"",\""Q14\"":\""Never\"",\""Q15\"":\""Sometimes\"",\""Q16\"":\""Never\"",\""Q17\"":\""Sometimes\"",\""Q18\"":\""Always\"",\""Q19\"":\""Rarely\"",\""Q20\"":\""Often\"",\""Q21\"":\""Sometimes\"",\""Q22\"":\""Rarely\"",\""Q23\"":\""Never\"",\""Q24\"":\""Rarely\"",\""Q25\"":\""Never\""}"", ""internal_node_id"": ""0.0-88.0"", ""subjectId"": ""bzwcpqggvr"", ""label"": ""eat"", ""earnedReward"": 27.5, ""time_elapsed"": 1530313, ""trialType"": ""quest"", ""trial_index"": 89}"
A1UKAS30R0MFI6:3JC6VJ2SACHWCYHCMVEE0BIWXAJA5W,90,1548014231551,"{""rt"": 37194, ""trial_type"": ""survey-multi-choiceOriginal"", ""responses"": ""{\""Q0\"":\""A little\"",\""Q1\"":\""A lot\"",\""Q2\"":\""Not at all\"",\""Q3\"":\""Not at all\"",\""Q4\"":\""Not at all\"",\""Q5\"":\""A little\"",\""Q6\"":\""Not at all\"",\""Q7\"":\""Not at all\"",\""Q8\"":\""Not at all\"",\""Q9\"":\""Not at all\"",\""Q10\"":\""Not at all\"",\""Q11\"":\""A little\"",\""Q12\"":\""Not at all\"",\""Q13\"":\""A little\"",\""Q14\"":\""Not at all\"",\""Q15\"":\""Not at all\"",\""Q16\"":\""Not at all\"",\""Q17\"":\""Not at all\"",\""Q18\"":\""A little\""}"", ""internal_node_id"": ""0.0-89.0"", ""subjectId"": ""bzwcpqggvr"", ""label"": ""ocir"", ""earnedReward"": 27.5, ""time_elapsed"": 1568610, ""trialType"": ""quest"", ""trial_index"": 90}"
A1UKAS30R0MFI6:3JC6VJ2SACHWCYHCMVEE0BIWXAJA5W,91,1548014298441,"{""rt"": 65759, ""trial_type"": ""survey-multi-choiceOriginal"", ""responses"": ""{\""Q0\"":\""True\"",\""Q1\"":\""True\"",\""Q2\"":\""True\"",\""Q3\"":\""True\"",\""Q4\"":\""True\"",\""Q5\"":\""False\"",\""Q6\"":\""True\"",\""Q7\"":\""False\"",\""Q8\"":\""True\"",\""Q9\"":\""True\"",\""Q10\"":\""True\"",\""Q11\"":\""False\"",\""Q12\"":\""True\"",\""Q13\"":\""False\"",\""Q14\"":\""False\"",\""Q15\"":\""False\"",\""Q16\"":\""True\"",\""Q17\"":\""False\"",\""Q18\"":\""False\"",\""Q19\"":\""False\"",\""Q20\"":\""False\"",\""Q21\"":\""True\"",\""Q22\"":\""True\"",\""Q23\"":\""False\"",\""Q24\"":\""True\"",\""Q25\"":\""False\"",\""Q26\"":\""True\"",\""Q27\"":\""True\"",\""Q28\"":\""False\"",\""Q29\"":\""True\"",\""Q30\"":\""False\"",\""Q31\"":\""True\"",\""Q32\"":\""True\"",\""Q33\"":\""False\"",\""Q34\"":\""True\"",\""Q35\"":\""False\"",\""Q36\"":\""True\"",\""Q37\"":\""False\"",\""Q38\"":\""True\"",\""Q39\"":\""True\"",\""Q40\"":\""False\"",\""Q41\"":\""True\"",\""Q42\"":\""True\"",\""Q43\"":\""False\"",\""Q44\"":\""True\"",\""Q45\"":\""True\"",\""Q46\"":\""True\"",\""Q47\"":\""True\"",\""Q48\"":\""False\"",\""Q49\"":\""False\""}"", ""internal_node_id"": ""0.0-90.0"", ""subjectId"": ""bzwcpqggvr"", ""label"": ""anxiety-TMAS"", ""earnedReward"": 27.5, ""time_elapsed"": 1635500, ""trialType"": ""quest"", ""trial_index"": 91}"
A1UKAS30R0MFI6:3JC6VJ2SACHWCYHCMVEE0BIWXAJA5W,92,1548014427170,"{""rt"": 127622, ""trial_type"": ""survey-multi-choiceOriginal"", ""responses"": ""{\""Q0\"":\""5\"",\""Q1\"":\""It's impossible to tell\"",\""Q2\"":\""47\"",\""Q3\"":\""Sunday\"",\""Q4\"":\""X\"",\""Q5\"":\""F\"",\""Q6\"":\""X\"",\""Q7\"":\""N\"",\""Q8\"":\""C\"",\""Q9\"":\""D\"",\""Q10\"":\""C\"",\""Q11\"":\""E\"",\""Q12\"":\""E\"",\""Q13\"":\""A\"",\""Q14\"":\""C\"",\""Q15\"":\""F\""}"", ""internal_node_id"": ""0.0-91.0"", ""subjectId"": ""bzwcpqggvr"", ""label"": ""iq"", ""earnedReward"": 27.5, ""time_elapsed"": 1764229, ""trialType"": ""quest"", ""trial_index"": 92}"
A1UKAS30R0MFI6:3JC6VJ2SACHWCYHCMVEE0BIWXAJA5W,93,1548014428174,"{""trial_type"": ""call-function"", ""internal_node_id"": ""0.0-92.0"", ""subjectId"": ""bzwcpqggvr"", ""earnedReward"": 27.5, ""time_elapsed"": 1765233, ""trial_index"": 93}"
A1UKAS30R0MFI6:3JC6VJ2SACHWCYHCMVEE0BIWXAJA5W,94,1548014442628,"{""rt"": 14452, ""trial_type"": ""text"", ""internal_node_id"": ""0.0-93.0"", ""subjectId"": ""bzwcpqggvr"", ""earnedReward"": 27.5, ""time_elapsed"": 1779687, ""key_press"": 32, ""trial_index"": 94}"
A1UKAS30R0MFI6:3JC6VJ2SACHWCYHCMVEE0BIWXAJA5W,95,1548014446281,"{""rt"": 2648, ""trial_type"": ""survey-text"", ""responses"": ""{\""Q0\"":\""\""}"", ""internal_node_id"": ""0.0-94.0"", ""subjectId"": ""bzwcpqggvr"", ""earnedReward"": 27.5, ""time_elapsed"": 1783340, ""trial_index"": 95}"
A2541C8MY0BYV3:3LJ7UR74RIBL0Y71HU09HPWJ8JZ4NR,0,1551879390533,"{""rt"": 1879, ""trial_type"": ""instructions"", ""view_history"": ""[{\""page_index\"":0,\""viewing_time\"":1878}]"", ""internal_node_id"": ""0.0-0.0"", ""subjectId"": ""a25kucerel"", ""earnedReward"": 20, ""time_elapsed"": 1880, ""trial_index"": 0}"
A2541C8MY0BYV3:3LJ7UR74RIBL0Y71HU09HPWJ8JZ4NR,1,1551879397201,"{""rt"": 5658, ""trial_type"": ""survey-multi-choice"", ""responses"": ""{\""Q0\"":\""29\"",\""Q1\"":\""male\""}"", ""internal_node_id"": ""0.0-1.0"", ""subjectId"": ""a25kucerel"", ""earnedReward"": 20, ""time_elapsed"": 8548, ""trial_index"": 1}"
A2541C8MY0BYV3:3LJ7UR74RIBL0Y71HU09HPWJ8JZ4NR,2,1551879492258,"{""rt"": 94056, ""trial_type"": ""instructions"", ""view_history"": ""[{\""page_index\"":0,\""viewing_time\"":2989},{\""page_index\"":1,\""viewing_time\"":20708},{\""page_index\"":2,\""viewing_time\"":12893},{\""page_index\"":3,\""viewing_time\"":7941},{\""page_index\"":4,\""viewing_time\"":5778},{\""page_index\"":5,\""viewing_time\"":2272},{\""page_index\"":6,\""viewing_time\"":3883},{\""page_index\"":7,\""viewing_time\"":1693},{\""page_index\"":6,\""viewing_time\"":1258},{\""page_index\"":7,\""viewing_time\"":8056},{\""page_index\"":8,\""viewing_time\"":9474},{\""page_index\"":9,\""viewing_time\"":15458},{\""page_index\"":10,\""viewing_time\"":1652}]"", ""internal_node_id"": ""0.0-2.0"", ""subjectId"": ""a25kucerel"", ""earnedReward"": 20, ""time_elapsed"": 103605, ""trial_index"": 2}"
